ax,ay,az,gx,gy,gz,recording,source_folder
5.867201328277588,4.374080181121826,-8.987441062927246,0.4092797040939331,-0.6585127115249634,-0.1270599663257599,2,1
5.905486106872559,4.421936511993408,-9.006585121154785,0.5167919993400574,-0.6548475623130798,-0.1270599663257599,2,1
5.9916276931762695,4.431507110595703,-8.930014610290527,0.5534439086914062,-0.6597344279289246,-0.1172861233353614,2,1
6.077769756317139,4.431507110595703,-8.786445617675781,0.6731734871864319,-0.6585127115249634,-0.1148426681756973,2,1
6.049056053161621,4.268795490264893,-8.70030403137207,0.7086036801338196,-0.6597344279289246,-0.1148426681756973,2,1
6.087340831756592,4.441079139709473,-8.776872634887695,0.8100073337554932,-0.6536257863044739,-0.1221730485558509,2,1
5.982056617736816,4.354937553405762,-8.537590980529785,0.8332201242446899,-0.6572909951210022,-0.1172861233353614,2,1
6.087340831756592,4.441079139709473,-8.50887680053711,0.8637634515762329,-0.656069278717041,-0.1172861233353614,2,1
6.307480335235596,4.278366565704346,-8.480164527893066,0.8564330339431763,-0.6487389206886292,-0.1197295859456062,2,1
6.288337707519531,4.278366565704346,-8.451449394226074,0.8429940342903137,-0.6572909951210022,-0.1160643920302391,2,1
6.3840508460998535,4.182653903961182,-8.212167739868164,0.8417722582817078,-0.6658430695533752,-0.1209513172507286,2,1
6.288337707519531,4.106083869934082,-8.173882484436035,0.8246681094169617,-0.6609562039375305,-0.1172861233353614,2,1
6.259624004364014,4.077369689941406,-8.10688304901123,0.8222246170043945,-0.656069278717041,-0.1246165111660957,2,1
6.192625045776367,3.905086755752564,-8.10688304901123,0.836885392665863,-0.6585127115249634,-0.1148426681756973,2,1
6.106483459472656,3.962514162063599,-7.992027759552002,0.836885392665863,-0.6646214127540588,-0.1123991981148719,2,1
5.867201328277588,3.809373617172241,-8.02074146270752,0.9004153609275818,-0.646295428276062,-0.1062905490398407,2,1
5.694918155670166,3.7328035831451416,-7.992027759552002,0.9248499870300292,-0.6414085030555725,-0.1099557429552078,2,1
5.608777046203613,3.704089641571045,-7.810173511505127,1.0665706396102903,-0.6352998614311218,-0.1014036238193512,2,1
5.54177713394165,3.608376502990722,-7.781459331512451,1.10444438457489,-0.6377432942390442,-0.0977384373545646,2,1
5.426921844482422,3.503092288970948,-7.858029842376709,1.2803735733032229,-0.6401867866516113,-0.0867428630590438,2,1
5.493920803070068,3.493520975112915,-7.934599876403809,1.3096951246261597,-0.6426302194595337,-0.0745255574584007,2,1
5.627918720245361,3.4169507026672363,-8.10688304901123,1.381777048110962,-0.6487389206886292,-0.0647517144680023,2,1
5.618347644805908,3.38823676109314,-7.953742504119873,1.4147639274597168,-0.6487389206886292,-0.0427605658769607,2,1
5.446064472198486,3.321237802505493,-7.934599876403809,1.408655285835266,-0.6499606370925903,-0.0268780700862407,2,1
5.417350769042969,3.129812002182007,-7.963313579559326,1.3573424816131592,-0.6377432942390442,0.0171042270958423,2,1
5.359922885894775,3.148954629898072,-8.059026718139648,1.3341296911239624,-0.6340781450271606,0.0256563387811183,2,1
5.235496044158936,2.9288148880004883,-7.94417142868042,1.23394775390625,-0.6157521605491638,0.067195177078247,2,1
5.197210788726807,2.967100143432617,-7.877171993255615,1.2192870378494265,-0.6230825185775757,0.0842994004487991,2,1
5.206782341003418,2.8905298709869385,-7.781459331512451,1.1496483087539673,-0.6218608021736145,0.1392772644758224,2,1
5.00578498840332,2.8905298709869385,-7.810173511505127,1.138652801513672,-0.6365215182304382,0.1734857261180877,2,1
4.938786029815674,3.014956474304199,-7.838886737823486,1.1349875926971436,-0.6352998614311218,0.1918116807937622,2,1
4.776074409484863,2.957528829574585,-7.800601959228516,1.1484266519546509,-0.6536257863044739,0.2125810980796814,2,1
4.986642360687256,2.8139593601226807,-7.886743545532227,1.1520917415618896,-0.6695082783699036,0.2467895448207855,2,1
4.871786594390869,2.7182462215423584,-7.925028324127197,1.1594222784042358,-0.6792821884155273,0.2700024545192718,2,1
4.814359188079834,2.699104070663452,-7.992027759552002,1.1582003831863403,-0.7037167549133301,0.3249803185462951,2,1
4.6995038986206055,2.622533798217773,-7.915457725524902,1.1472049951553345,-0.7024949789047241,0.3469714522361755,2,1
4.555934429168701,2.612962484359741,-7.963313579559326,1.1142181158065796,-0.7159340977668762,0.4141666293144226,2,1
4.613362312316895,2.679961442947388,-7.915457725524902,1.0983357429504397,-0.7232644557952881,0.4337143301963806,2,1
4.546363353729248,2.5268208980560303,-7.896315097808838,1.038470983505249,-0.720820963382721,0.4789183437824249,2,1
4.383650779724121,2.402393817901612,-7.800601959228516,0.9920451641082764,-0.7305948734283447,0.5265658497810364,2,1
4.230510234832764,2.545963287353516,-7.800601959228516,0.9615018963813782,-0.7318165302276611,0.5766568183898926,2,1
4.374080181121826,2.344966173171997,-7.858029842376709,0.8808676600456238,-0.7305948734283447,0.607200026512146,2,1
4.077369689941406,2.3162524700164795,-7.714460372924805,0.7757988572120667,-0.7330382466316223,0.6866125464439392,2,1
4.048655986785889,2.287538528442383,-7.676175117492676,0.750142514705658,-0.7379252314567566,0.7134906053543091,2,1
4.1730828285217285,2.421536684036255,-7.494320869445801,0.6780604124069214,-0.7525859475135803,0.7880162000656128,2,1
4.000799655914307,2.344966173171997,-7.484748840332031,0.6609562039375305,-0.7623597979545593,0.8026769161224365,2,1
3.8668015003204346,2.3545374870300293,-7.637890338897705,0.6206390857696533,-0.7806857824325562,0.8674286603927612,2,1
3.809373617172241,2.402393817901612,-7.561319828033447,0.5937609672546387,-0.7892378568649292,0.8881980776786804,2,1
3.924229145050049,2.421536684036255,-7.580462455749512,0.5351179242134094,-0.8063421249389648,0.960280179977417,2,1
3.6945180892944336,2.364108800888061,-7.590033531188965,0.5057964324951172,-0.8148941993713379,0.9859364628791808,2,1
3.684947013854981,2.469393014907837,-7.647461414337158,0.4166100621223449,-0.8136724829673767,1.0690141916275024,2,1
3.646661758422852,2.3736801147460938,-7.484748840332031,0.3811798989772796,-0.817337691783905,1.0971139669418335,2,1
3.445664882659912,2.3736801147460938,-7.379465103149414,0.3310889601707458,-0.8234463334083557,1.1349875926971436,2,1
3.4743783473968506,2.421536684036255,-7.484748840332031,0.294437050819397,-0.8100073337554932,1.1594222784042358,2,1
3.6370906829833984,2.4598217010498047,-7.503891944885254,0.2015855312347412,-0.8271114826202393,1.227839112281799,2,1
3.5509488582611084,2.4502503871917725,-7.52303409576416,0.1392772644758224,-0.8332201242446899,1.264491081237793,2,1
3.560519933700561,2.5268208980560303,-7.484748840332031,0.0891863256692886,-0.8381071090698242,1.2962559461593628,2,1
3.464807271957397,2.47896409034729,-7.379465103149414,0.0684169083833694,-0.8527678847312927,1.3023645877838137,2,1
3.541377544403076,2.6703901290893555,-7.36032247543335,-0.0415388382971286,-0.8820894360542297,1.3536773920059204,2,1
3.493520975112915,2.622533798217773,-7.293323516845703,-0.0684169083833694,-0.8943067193031311,1.3732250928878784,2,1
3.206382274627685,2.794816970825196,-7.15932559967041,-0.1783726513385772,-0.9395107626914978,1.4147639274597168,2,1
3.053241729736328,2.584248304367065,-7.111469268798828,-0.2492330223321914,-0.956614911556244,1.440420150756836,2,1
3.034099102020264,2.7182462215423584,-7.015756130218506,-0.3335324227809906,-0.9761626720428468,1.4660764932632446,2,1
2.8809585571289062,2.68953275680542,-6.920042991638184,-0.3726277947425842,-0.99571031332016,1.4868459701538086,2,1
2.746960401535034,2.6608188152313232,-6.757331371307373,-0.4056144952774048,-1.0042624473571775,1.4917329549789429,2,1
2.746960401535034,2.7278177738189697,-6.479763507843018,-0.5632177591323853,-1.0323623418807983,1.5467108488082886,2,1
2.68953275680542,2.699104070663452,-6.278766632080078,-0.6389650106430054,-1.0555751323699951,1.5870277881622314,2,1
2.507678270339966,2.871387481689453,-6.116054534912109,-0.6817255616188049,-1.0580185651779177,1.6004669666290283,2,1
2.507678270339966,2.775674343109131,-5.8097734451293945,-0.807563841342926,-1.0946705341339111,1.6676621437072754,2,1
2.239682197570801,2.737389087677002,-5.551348686218262,-0.8491026759147644,-1.1056660413742063,1.6884315013885498,2,1
1.9334007501602173,2.794816970825196,-5.225924968719482,-1.0018190145492554,-1.1288789510726929,1.7678439617156982,2,1
1.8281164169311523,2.833101987838745,-5.044069766998291,-1.0934487581253052,-1.1435396671295166,1.814269781112671,2,1
1.7994027137756348,2.919243574142456,-4.890929222106934,-1.186300277709961,-1.1533136367797852,1.860695600509644,2,1
1.6271194219589231,3.081955671310425,-4.479364395141602,-1.2192870378494265,-1.1582003831863403,1.890017032623291,2,1
1.65583336353302,3.091526985168457,-4.134798049926758,-1.3842206001281738,-1.1740829944610596,2.0024163722991943,2,1
1.6079767942428589,3.168097257614136,-3.8572301864624015,-1.4233160018920898,-1.1838568449020386,2.03540301322937,2,1
1.8281164169311523,3.091526985168457,-3.6562328338623047,-1.5870277881622314,-1.2180652618408203,2.144136905670166,2,1
2.0865414142608643,3.2159535884857178,-3.206382274627685,-1.6407840251922607,-1.226617455482483,2.177123785018921,2,1
2.1343977451324463,3.177668809890747,-2.794816970825196,-1.821600079536438,-1.2620476484298706,2.289522886276245,2,1
2.68953275680542,3.0723843574523926,-2.4502503871917725,-1.8851301670074463,-1.2730430364608765,2.317622900009156,2,1
3.168097257614136,3.3020951747894287,-2.0195424556732178,-2.0256290435791016,-1.312138557434082,2.422691345214844,2,1
3.5509488582611084,3.4743783473968506,-1.722832441329956,-2.2430970668792725,-1.3805553913116455,2.5057692527771,2,1
4.048655986785889,3.5509488582611084,-1.3399807214736938,-2.3078489303588867,-1.4098769426345823,2.548529863357544,2,1
4.632504940032959,3.7232320308685294,-0.8231310248374939,-2.506990909576416,-1.4953980445861816,2.691472053527832,2,1
5.522634506225586,3.885944128036499,-0.4019941985607147,-2.557081699371338,-1.529606580734253,2.731789350509644,2,1
6.317052364349365,4.153940200805664,-0.066999040544033,-2.7562239170074463,-1.6322319507598877,2.895501136779785,2,1
6.996613502502441,4.211367607116699,0.4115655124187469,-2.802649736404419,-1.6676621437072754,2.941926956176758,2,1
7.427321910858154,4.527220726013184,0.8805587291717529,-2.9517009258270264,-1.7507396936416626,3.1190779209136963,2,1
7.5326056480407715,4.5655059814453125,1.0719846487045288,-2.9969048500061035,-1.7788395881652832,3.1838295459747314,2,1
8.164311408996582,4.632504940032959,1.5696916580200195,-3.018896102905273,-1.8313740491867063,3.308445930480957,2,1
8.70030403137207,4.996213912963867,2.249253273010254,-3.005456924438477,-1.879021525382996,3.397632360458374,2,1
9.360722541809082,4.929214954376221,2.009971141815185,-2.9969048500061035,-1.9010125398635864,3.478266716003418,2,1
9.753145217895508,5.101498126983643,2.794816970825196,-2.972470283508301,-1.9437731504440308,3.547905206680298,2,1
10.595418930053713,5.254638671875,2.5746772289276123,-2.9345967769622803,-1.9523253440856927,3.612657070159912,2,1
11.858829498291016,5.00578498840332,3.6562328338623047,-2.867401361465454,-2.014633655548096,3.753155946731568,2,1
13.438092231750488,5.254638671875,3.97208571434021,-2.8344147205352783,-2.0305159091949463,3.810577392578125,2,1
14.069796562194824,5.484349250793457,4.5655059814453125,-2.7733280658721924,-2.0781636238098145,4.028045177459717,2,1
15.218351364135742,5.37906551361084,5.54177713394165,-2.7623324394226074,-2.085493803024292,4.073249340057373,2,1
15.94576930999756,5.388636112213135,5.905486106872559,-2.7757716178894043,-2.0891592502593994,4.206418037414551,2,1
17.974882125854492,5.50349235534668,6.278766632080078,-2.7843236923217773,-2.0512855052948,4.283387184143066,2,1
20.09013938903809,5.493920803070068,6.336194515228272,-2.769663095474243,-2.009746551513672,4.323704242706299,2,1
21.50668907165528,5.407779216766357,6.690331935882568,-2.7488934993743896,-1.97553825378418,4.355469226837158,2,1
24.071796417236328,5.331209182739258,7.5326056480407715,-2.7036893367767334,-1.9010125398635864,4.397007942199707,2,1
26.47418975830078,5.398208141326904,8.776872634887695,-2.6645941734313965,-1.8533650636672967,4.404338359832764,2,1
29.66143035888672,6.020341873168945,9.77228832244873,-2.3237314224243164,-1.7336355447769165,4.44954252243042,2,1
33.34637451171875,6.479763507843018,11.112268447875977,-2.183232307434082,-1.6982053518295288,4.46542501449585,2,1
35.05006790161133,6.65204668045044,12.021539688110352,-1.684766411781311,-1.5613715648651123,4.510628700256348,2,1
36.32304763793945,6.642475605010986,12.720245361328123,-1.567480206489563,-1.489289402961731,4.492302894592285,2,1
37.34717559814453,7.36032247543335,13.256237030029297,-1.5491541624069214,-1.0665706396102903,4.41166877746582,2,1
40.26642227172852,8.441879272460938,13.964512825012209,-1.5980234146118164,-0.9101892113685608,4.38356876373291,2,1
42.90809631347656,9.418149948120115,14.634504318237305,-1.6798794269561768,-0.1087340116500854,4.36157751083374,2,1
45.59762954711914,10.375279426574709,15.706487655639648,-1.5919147729873655,0.4092797040939331,4.390899181365967,2,1
49.82814025878906,11.30369472503662,17.218751907348633,-1.5222761631011963,0.6524040699005127,4.412890434265137,2,1
53.03452301025391,11.724830627441406,18.27159309387207,-1.1252137422561646,1.6591099500656128,4.475198745727539,2,1
56.0399055480957,12.681961059570312,18.66401672363281,-1.027475357055664,1.966986060142517,4.470312118530273,2,1
58.652870178222656,12.930814743041992,19.28614997863769,-0.7831292152404785,3.445280075073242,4.382347106933594,2,1
59.916282653808594,12.892528533935549,20.43470573425293,-0.720820963382721,4.166100978851318,4.288273811340332,2,1
61.21797561645508,13.42852020263672,21.889543533325195,-0.5656611919403076,5.2864274978637695,4.096462249755859,2,1
62.27081680297852,13.85922908782959,22.214967727661133,-0.4239404499530792,6.067113399505615,3.98895001411438,2,1
65.7260513305664,14.634504318237305,22.339391708374023,0.0097738439217209,7.439116477966309,3.787364482879639,2,1
71.99524688720703,15.04606819152832,21.96611213684082,0.5668829083442688,9.03714084625244,3.554013967514038,2,1
77.54660034179688,14.998211860656738,21.104698181152344,0.9944885969161988,9.850812911987305,3.403740882873535,2,1
87.6443099975586,15.199210166931152,18.71187210083008,1.7690656185150146,11.352319717407228,3.0970866680145264,2,1
102.89137268066406,14.873785018920898,14.988641738891602,2.1514673233032227,12.051149368286133,2.92848801612854,2,1
117.5641632080078,14.117652893066406,11.274980545043944,3.718947410583496,14.760947227478027,2.090380907058716,2,1
123.718505859375,13.42852020263672,10.145567893981934,4.18809175491333,15.421903610229492,1.7910568714141846,2,1
138.8124237060547,12.88295841217041,6.049056053161621,5.442809104919434,16.82322883605957,0.9944885969161988,2,1
152.6525115966797,12.07896900177002,1.1294121742248535,6.731734752655029,18.189123153686523,-0.0696386322379112,2,1
171.4122314453125,10.17428207397461,-4.680361270904541,7.330382823944092,18.762115478515625,-0.5827654600143433,2,1
186.774169921875,8.030312538146973,-10.135995864868164,9.301033973693848,20.64724349975586,-2.924822807312012,2,1
199.6571044921875,6.728617191314697,-14.55793285369873,9.781173706054688,20.99177360534668,-4.370130062103272,2,1
214.0523376464844,4.527220726013184,-20.31985092163086,10.531316757202148,21.56476402282715,-5.270545482635498,2,1
221.91995239257807,0.5455635190010071,-1.674975872039795,-15.357151985168455,12.180652618408203,-6.900333404541016,2,1
42.32424545288086,7.427321910858154,-69.5067138671875,-9.882577896118164,15.847064971923828,-7.235087871551514,2,1
85.73961639404297,-2.1343977451324463,39.14657974243164,-4.924795627593994,11.276572227478027,-4.789183616638184,2,1
101.3408203125,23.219951629638672,0.7657032608985901,1.9217820167541504,14.616783142089844,-4.8001790046691895,2,1
102.91051483154295,11.093125343322754,15.01735496520996,15.254526138305664,16.1207332611084,-5.371948719024658,2,1
127.91072845458984,11.571690559387209,-8.671588897705078,13.330300331115724,14.616783142089844,-5.8276543617248535,2,1
124.25450134277344,-0.363709032535553,-50.68955612182617,13.942387580871582,13.74691104888916,-8.998044967651367,2,1
116.0614776611328,0.6604190468788147,-14.356935501098633,14.86357307434082,13.782341957092283,-9.828821182250977,2,1
94.52606964111328,-20.367706298828125,-5.608777046203613,16.748703002929688,4.090353488922119,-17.261829376220703,2,1
87.4241714477539,-19.276580810546875,-4.785645484924316,17.005266189575195,2.0134117603302,-17.230064392089844,2,1
83.49993896484375,-18.673587799072266,-6.900900363922119,16.980831146240234,1.0910052061080933,-17.081012725830078,2,1
76.57032775878906,-16.146766662597656,-3.7232320308685294,16.208698272705078,-0.6414085030555725,-16.61431312561035,2,1
70.13841247558594,-14.376079559326172,-0.1531406491994857,15.35593032836914,-2.004859685897827,-16.17937660217285,2,1
65.25706481933594,-12.605389595031738,-0.9667003750801086,14.319902420043944,-3.054326057434082,-15.50131607055664,2,1
57.76273727416992,-11.00698471069336,0.6508477926254272,13.52455711364746,-3.643200159072876,-15.149457931518556,2,1
52.6612434387207,-8.949155807495117,2.297109842300415,10.943039894104004,-4.922351837158203,-13.66505527496338,2,1
47.22474670410156,-7.063612937927246,0.1339980810880661,10.360274314880373,-5.1434855461120605,-13.300979614257812,2,1
44.23850631713867,-6.240481376647949,2.9862427711486816,8.084190368652344,-5.78489351272583,-11.705399513244627,2,1
43.71208572387695,-6.62333345413208,2.2779672145843506,7.546628952026367,-5.838649749755859,-10.837970733642578,2,1
40.75455474853516,-6.900900363922119,2.6321046352386475,5.518556594848633,-5.959600925445557,-10.078054428100586,2,1
36.48575592041016,-6.4701924324035645,2.7182462215423584,4.554611206054688,-5.892406463623047,-9.506284713745115,2,1
31.94896697998047,-6.920042991638184,3.589233875274658,4.139222621917725,-5.821546077728272,-9.210625648498535,2,1
30.25485038757324,-7.341179847717285,2.699104070663452,2.9138271808624268,-5.530774116516113,-8.332201957702637,2,1
27.66103172302246,-7.542177200317383,4.67078971862793,2.6316075325012207,-5.439144134521484,-8.103737831115723,2,1
25.775484085083008,-7.829315662384033,3.7328035831451416,1.995085835456848,-5.055520534515381,-7.243639945983887,2,1
23.60280036926269,-7.685746669769287,4.048655986785889,1.912008166313172,-4.972443103790283,-7.057937145233154,2,1
21.98525619506836,-7.848458290100098,4.709074974060059,1.7763961553573608,-4.697553634643555,-6.426302433013916,2,1
21.248266220092773,-7.580462455749512,3.838087558746338,1.7666223049163818,-4.631579875946045,-6.202725410461426,2,1
20.003995895385746,-7.341179847717285,3.0723843574523926,1.7482962608337402,-4.41166877746582,-5.599190711975098,2,1
19.726428985595703,-7.369894027709961,3.081955671310425,1.7360789775848389,-4.354247570037842,-5.38661003112793,2,1
19.276580810546875,-7.178467750549316,2.469393014907837,1.6762142181396484,-4.315151691436768,-5.27665376663208,2,1
18.549161911010746,-7.302894592285156,3.273381233215332,1.5357152223587036,-4.214970111846924,-4.962668895721436,2,1
17.82174301147461,-7.676175117492676,2.4502503871917725,1.451415777206421,-4.177096843719482,-4.849048137664795,2,1
17.0081844329834,-7.685746669769287,2.9862427711486816,1.2095131874084473,-3.985284566879273,-4.434881687164307,2,1
15.323637008666992,-7.637890338897705,3.531806468963623,1.1899654865264893,-3.9290852546691895,-4.3285908699035645,2,1
14.299509048461914,-7.695317268371582,3.5509488582611084,1.310916781425476,-3.786142826080322,-3.899763584136963,2,1
13.782659530639648,-7.81974458694458,3.713660955429077,1.3732250928878784,-3.762929916381836,-3.7836992740631104,2,1
13.55294704437256,-7.561319828033447,3.1106693744659424,1.563814997673035,-3.672521829605103,-3.335324287414551,2,1
13.409378051757812,-7.5326056480407715,3.76151704788208,1.5796974897384644,-3.630982875823975,-3.1251864433288574,2,1
12.911670684814451,-7.762316703796387,3.6370906829833984,1.57481050491333,-3.565009593963623,-2.987131118774414,2,1
12.52881908416748,-7.714460372924805,3.541377544403076,1.350012183189392,-3.4465017318725586,-2.58762526512146,2,1
12.44267749786377,-7.513463497161865,3.034099102020264,1.2596040964126587,-3.412293195724488,-2.5082125663757324,2,1
12.318251609802246,-7.465607166290283,2.794816970825196,0.8686503767967224,-3.2559115886688232,-2.135585069656372,2,1
12.672389030456545,-7.810173511505127,3.2542388439178467,0.7428121566772461,-3.232698678970337,-2.052507162094116,2,1
12.988241195678713,-8.039884567260742,2.8905298709869385,0.3029891550540924,-3.11174750328064,-1.7910568714141846,2,1
12.844672203063965,-8.221738815307617,3.531806468963623,0.2076941877603531,-3.082426071166992,-1.7043139934539795,2,1
12.69153118133545,-8.193024635314941,3.5509488582611084,-0.0183259565383195,-2.977357149124145,-1.4330898523330688,2,1
12.701102256774902,-8.499305725097656,3.7710886001586914,-0.0415388382971286,-2.92848801612854,-1.260825753211975,2,1
12.844672203063965,-8.556733131408691,3.742374420166016,-0.0366519130766391,-2.90649676322937,-1.0824532508850098,2,1
12.863814353942873,-9.293723106384276,3.962514162063599,-0.0146607654169201,-2.858849287033081,-0.9993755221366882,2,1
12.576675415039062,-8.920443534851074,3.684947013854981,0.0061086523346602,-2.805093288421631,-0.7464773058891296,2,1
12.490534782409668,-9.083154678344728,4.000799655914307,-0.0024434609804302,-2.789210796356201,-0.6658430695533752,2,1
12.480962753295898,-9.054441452026367,3.895515203475952,-0.1282816976308822,-2.724458932876587,-0.4056144952774048,2,1
12.509676933288574,-9.150154113769531,3.541377544403076,-0.1869247555732727,-2.682920217514038,-0.3164281845092773,2,1
12.69153118133545,-9.198010444641112,4.029513359069824,-0.251676470041275,-2.665815830230713,-0.2577851116657257,2,1
12.62453269958496,-9.322437286376951,4.25922441482544,-0.5522221922874451,-2.5925118923187256,-0.0305432621389627,2,1
12.729816436767578,-9.494720458984377,4.067798614501953,-0.6499606370925903,-2.5583035945892334,0.0195476878434419,2,1
12.88295841217041,-9.580862045288086,4.211367607116699,-0.9505062699317932,-2.4972169399261475,0.1918116807937622,2,1
12.88295841217041,-9.848858833312988,4.316651821136475,-1.0592403411865234,-2.4691171646118164,0.2834414541721344,2,1
12.413965225219728,-9.91585636138916,4.651647090911865,-1.2693779468536377,-2.404365539550781,0.3347541391849518,2,1
11.83011531829834,-9.992427825927734,4.7952165603637695,-1.557706356048584,-2.298074960708618,0.4874704480171203,2,1
11.667403221130373,-10.28913688659668,4.680361270904541,-1.6285667419433594,-2.267531633377075,0.5265658497810364,2,1
11.37069320678711,-10.097711563110352,5.00578498840332,-1.7140878438949585,-2.2211060523986816,0.5864306092262268,2,1
11.169695854187012,-10.537991523742676,5.225924968719482,-1.7690656185150146,-2.160019636154175,0.6352998614311218,2,1
10.872984886169434,-10.576275825500488,5.331209182739258,-1.850921630859375,-2.083050489425659,0.7147123217582703,2,1
10.499706268310549,-10.65284538269043,5.264209270477295,-1.874134540557861,-2.054950714111328,0.750142514705658,2,1
10.308279037475586,-10.710274696350098,5.522634506225586,-1.8863518238067627,-1.9217820167541504,0.8698720932006836,2,1
9.92542839050293,-10.77727222442627,5.45563554763794,-1.891238808631897,-1.8680258989334104,0.8991935849189758,2,1
9.753145217895508,-10.75813102722168,5.618347644805908,-1.835039138793945,-1.693318486213684,1.026253581047058,2,1
9.762717247009276,-10.691131591796877,5.742774963378906,-1.8069393634796145,-1.6273449659347534,1.0641272068023682,2,1
9.619147300720217,-10.662418365478516,5.771488189697266,-1.794722080230713,-1.5723670721054075,1.1020008325576782,2,1
9.38943576812744,-10.78684425354004,5.532206058502197,-1.7873917818069458,-1.5198326110839844,1.1398744583129885,2,1
9.18843936920166,-10.77727222442627,5.771488189697266,-1.7861698865890503,-1.4648548364639282,1.1691960096359253,2,1
8.863014221191406,-10.576275825500488,5.560919761657715,-1.82404363155365,-1.312138557434082,1.25593900680542,2,1
8.662018775939941,-10.930414199829102,5.742774963378906,-1.8545868396759035,-1.2327260971069336,1.3023645877838137,2,1
8.260024070739746,-10.65284538269043,5.723631858825684,-1.888795256614685,-1.156978726387024,1.3439035415649414,2,1
7.925028324127197,-10.805987358093262,5.656632423400879,-2.0170769691467285,-0.9676105380058287,1.4367550611495972,2,1
7.503891944885254,-10.920842170715332,5.7619171142578125,-2.063502788543701,-0.8979718685150146,1.4685200452804563,2,1
7.40817928314209,-10.78684425354004,5.867201328277588,-2.1563541889190674,-0.6866125464439392,1.5711454153060913,2,1
7.188039779663086,-10.863414764404297,5.876771926879883,-2.183232307434082,-0.5363396406173706,1.633453607559204,2,1
6.795616626739502,-10.71984577178955,5.848058700561523,-2.188119411468506,-0.5094615817070007,1.6688838005065918,2,1
6.527620315551758,-10.624133110046388,5.8959150314331055,-2.1710150241851807,-0.3115412592887878,1.7678439617156982,2,1
6.317052364349365,-10.461421012878418,5.742774963378906,-2.160019636154175,-0.2565633952617645,1.8154914379119875,2,1
5.867201328277588,-10.279566764831545,5.752345561981201,-2.1502456665039062,-0.1661553531885147,1.860695600509644,2,1
5.704489231109619,-9.96371364593506,5.474778175354004,-2.122145652770996,-0.0537561401724815,1.93766450881958,2,1
5.321637630462647,-9.753145217895508,5.2737812995910645,-2.1148154735565186,0.0,1.974316358566284,2,1
5.168496608734131,-9.466007232666016,5.00578498840332,-2.119702339172364,0.188146486878395,2.119702339172364,2,1
5.321637630462647,-9.226724624633787,4.59421968460083,-2.135585069656372,0.2394591718912124,2.1563541889190674,2,1
5.292923927307129,-8.910871505737305,4.4027934074401855,-2.2174408435821533,0.4202752709388733,2.269975185394287,2,1
5.283352375030518,-8.662018775939941,4.220939636230469,-2.293188095092773,0.5363396406173706,2.333505153656006,2,1
5.1876397132873535,-8.336593627929688,3.6945180892944336,-2.3359487056732178,0.5754350423812866,2.3640482425689697,2,1
5.331209182739258,-8.059026718139648,3.426522016525269,-2.5106561183929443,0.7648032903671265,2.464230537414551,2,1
5.00578498840332,-7.838886737823486,3.2542388439178467,-2.5534167289733887,0.8112289905548096,2.48988676071167,2,1
4.651647090911865,-7.561319828033447,3.0723843574523926,-2.6792547702789307,0.9517280459403992,2.5925118923187256,2,1
4.67078971862793,-7.006184577941895,2.6703901290893555,-2.696359157562256,0.9834930300712584,2.613281488418579,2,1
4.441079139709473,-6.843472957611084,2.287538528442383,-2.765997886657715,1.1056660413742063,2.711019992828369,2,1
4.220939636230469,-6.345765590667725,1.761117458343506,-2.789210796356201,1.1398744583129885,2.739119529724121,2,1
4.364508152008057,-6.058627128601074,1.4261223077774048,-2.8930578231811523,1.253495454788208,2.8258626461029053,2,1
4.335794448852539,-5.838487148284912,0.9667003750801086,-2.9333746433258057,1.2779300212860107,2.8759536743164062,2,1
4.25922441482544,-5.37906551361084,0.7082754969596863,-3.087312936782837,1.3732250928878784,2.919935703277588,2,1
4.335794448852539,-4.948357582092285,0.2584248781204223,-3.1251864433288574,1.4049899578094482,2.938261747360229,2,1
4.393222808837891,-4.718646049499512,-0.1244267746806144,-3.277902841567993,1.4929546117782593,2.993239641189575,2,1
4.096512317657471,-4.412365436553955,-0.4498506784439087,-3.3121113777160645,1.510058879852295,3.005456924438477,2,1
4.048655986785889,-4.182653903961182,-0.6508477926254272,-3.4330625534057617,1.5992451906204224,3.0531044006347656,2,1
4.077369689941406,-3.809373617172241,-1.2059825658798218,-3.4636058807373047,1.6090190410614014,3.065321683883667,2,1
4.000799655914307,-3.445664882659912,-1.454836130142212,-3.563787937164306,1.6774358749389648,3.09586501121521,2,1
3.962514162063599,-3.091526985168457,-1.8185453414916992,-3.589444160461426,1.7104226350784302,3.1141908168792725,2,1
3.665804386138916,-2.746960401535034,-1.9621145725250244,-3.6590826511383057,1.7825047969818115,3.1593949794769287,2,1
3.464807271957397,-2.7086753845214844,-2.2205395698547363,-3.683517217636109,1.80816113948822,3.2009339332580566,2,1
3.3786656856536865,-2.603391170501709,-2.402393817901612,-3.715282440185547,1.8826866149902344,3.221703052520752,2,1
3.2350962162017822,-2.392822742462158,-2.507678270339966,-3.712838888168335,1.9168951511383057,3.2571334838867188,2,1
3.3786656856536865,-2.0961124897003174,-2.651247262954712,-3.704286813735962,1.9254472255706787,3.2705724239349365,2,1
3.426522016525269,-1.9621145725250244,-2.785245418548584,-3.5918874740600586,1.946216702461243,3.3389892578125,2,1
3.598805427551269,-1.6941183805465698,-2.9766714572906494,-3.546683549880981,1.958433985710144,3.3536500930786133,2,1
3.876372575759888,-1.4261223077774048,-3.187239646911621,-3.349984884262085,1.99142062664032,3.426953792572021,2,1
3.876372575759888,-1.3016955852508545,-3.321237802505493,-3.2644639015197754,2.006081342697144,3.4538321495056152,2,1
4.086941242218018,-1.2251251935958862,-3.321237802505493,-3.2009339332580566,2.0195205211639404,3.484375238418579,2,1
4.077369689941406,-1.062413215637207,-3.5509488582611084,-3.148399353027344,2.0415115356445312,3.495370864868164,2,1
4.326223850250244,-0.8135597109794617,-3.751945972442627,-2.9883527755737305,2.096489429473877,3.568674802780152,2,1
4.460221767425537,-0.4977070987224579,-3.981656789779663,-2.961474657058716,2.1148154735565186,3.5808920860290527,2,1
4.651647090911865,-0.3541377484798431,-4.182653903961182,-2.917492389678955,2.1563541889190674,3.6273179054260254,2,1
4.776074409484863,-0.1914258152246475,-4.383650779724121,-2.9016098976135254,2.1783454418182373,3.640756845474243,2,1
4.84307336807251,-0.0478564538061618,-4.326223850250244,-2.897944688796997,2.255314350128174,3.7055084705352783,2,1
4.728217601776123,0.3062812983989715,-4.680361270904541,-2.9126055240631104,2.2687535285949707,3.718947410583496,2,1
4.890929222106934,0.6221339106559753,-4.910072326660156,-2.9663615226745605,2.3432791233062744,3.7946949005126953,2,1
5.024927616119385,0.7465606927871704,-4.900500774383545,-2.9883527755737305,2.3628265857696533,3.819129467010498,2,1
4.96750020980835,0.6604190468788147,-5.1876397132873535,-3.026226282119751,2.3933699131011963,3.843564033508301,2,1
5.50349235534668,0.8901299834251404,-5.331209182739258,-3.048217535018921,2.4080307483673096,3.866776943206787,2,1
5.905486106872559,1.1485549211502075,-5.493920803070068,-3.1337387561798096,2.4813344478607178,3.9400808811187744,2,1
6.106483459472656,1.3399807214736938,-5.589633941650391,-3.143512487411499,2.4996607303619385,3.955963134765625,2,1
6.853044033050537,1.3591231107711792,-5.742774963378906,-3.1728339195251465,2.535090923309326,4.012162685394287,2,1
7.503891944885254,1.674975872039795,-5.7619171142578125,-3.1752774715423584,2.56929898262024,4.057366847991943,2,1
7.877171993255615,1.7994027137756348,-5.819344520568848,-3.1679470539093018,2.585181713104248,4.081801414489746,2,1
8.011170387268066,2.038684844970703,-5.876771926879883,-3.1202995777130127,2.596177339553833,4.169765949249268,2,1
7.915457725524902,2.258824348449707,-6.001199245452881,-3.112969160079956,2.5900685787200928,4.1917572021484375,2,1
8.183453559875488,2.6703901290893555,-6.345765590667725,-3.0946433544158936,2.5925118923187256,4.218635082244873,2,1
8.652447700500488,2.861815929412842,-6.479763507843018,-3.02989149093628,2.6035075187683105,4.310265064239502,2,1
8.863014221191406,3.34995174407959,-6.508477687835693,-3.0103437900543213,2.604729175567627,4.327369213104248,2,1
9.284152030944824,3.579662799835205,-6.795616626739502,-2.922379493713379,2.591290235519409,4.410446643829346,2,1
9.379864692687988,3.780659914016724,-6.948756694793701,-2.8930578231811523,2.5949556827545166,4.436103343963623,2,1
9.705288887023926,4.364508152008057,-7.054040908813477,-2.8295278549194336,2.585181713104248,4.487415790557861,2,1
10.155139923095703,4.5655059814453125,-7.36032247543335,-2.794097661972046,2.5815162658691406,4.505742073059082,2,1
10.71984577178955,4.7952165603637695,-7.40817928314209,-2.6988024711608887,2.598620653152466,4.580267429351807,2,1
11.00698471069336,4.804787635803223,-7.465607166290283,-2.689028739929199,2.5998425483703613,4.596149921417236,2,1
11.581260681152344,5.235496044158936,-7.800601959228516,-2.675589799880981,2.5900685787200928,4.615697860717773,2,1
11.753543853759766,5.647061347961426,-7.934599876403809,-2.747671842575073,2.5949556827545166,4.665788650512695,2,1
12.20339584350586,5.8959150314331055,-8.193024635314941,-2.783102035522461,2.5949556827545166,4.68044900894165,2,1
12.63410472869873,6.010769844055176,-8.10688304901123,-2.945591926574707,2.5888469219207764,4.741536140441895,2,1
13.217951774597168,6.364908218383789,-8.193024635314941,-3.001791715621948,2.585181713104248,4.774522304534912,2,1
13.44766330718994,6.73818826675415,-8.604589462280273,-3.150842666625977,2.5583035945892334,4.7904052734375,2,1
13.964512825012209,7.044469833374023,-8.796016693115234,-3.365867376327514,2.4972169399261475,4.823391914367676,2,1
14.510076522827148,7.570890426635742,-9.073582649230955,-3.4049627780914307,2.478891134262085,4.830722332000732,2,1
14.577075004577637,7.877171993255615,-9.150154113769531,-3.523470640182495,2.3933699131011963,4.841717720031738,2,1
14.634504318237305,8.087740898132324,-9.18843936920166,-3.543018341064453,2.372600555419922,4.838052749633789,2,1
14.62493133544922,8.38444995880127,-9.255437850952148,-3.5723397731781006,2.276083707809448,4.825835227966309,2,1
14.711073875427246,8.757731437683105,-9.351151466369627,-3.573561429977417,2.255314350128174,4.813618183135986,2,1
15.01735496520996,8.71944522857666,-9.245866775512695,-3.532022714614868,2.1429152488708496,4.786739826202393,2,1
15.17049503326416,8.920443534851074,-9.399007797241213,-3.5185837745666504,2.119702339172364,4.776966094970703,2,1
15.409777641296388,9.12143898010254,-9.3128662109375,-3.4245104789733887,1.9840903282165527,4.737870693206787,2,1
15.716059684753418,9.446864128112791,-9.332008361816406,-3.3536500930786133,1.9010125398635864,4.719544887542725,2,1
15.917057037353516,9.59043312072754,-9.418149948120115,-3.319441556930542,1.8570302724838257,4.707327842712402,2,1
16.003198623657227,9.83928680419922,-9.494720458984377,-3.193603515625,1.7165312767028809,4.658458709716797,2,1
15.821343421936035,9.92542839050293,-9.552148818969728,-3.156951427459717,1.6774358749389648,4.647462844848633,2,1
15.993626594543455,10.202996253967283,-9.647860527038574,-3.108082294464112,1.6212363243103027,4.640132427215576,2,1
15.811772346496582,10.576275825500488,-9.59043312072754,-3.0750956535339355,1.577254056930542,4.637689113616943,2,1
15.285350799560549,10.805987358093262,-9.494720458984377,-2.8710665702819824,1.484402418136597,4.645019054412842,2,1
14.663217544555664,11.064412117004396,-9.59043312072754,-2.8014280796051025,1.4538592100143433,4.648684501647949,2,1
14.529218673706056,11.169695854187012,-9.504291534423828,-2.579072952270508,1.36345112323761,4.635245800018311,2,1
14.835500717163086,11.093125343322754,-9.446864128112791,-2.537534236907959,1.3463469743728638,4.599815368652344,2,1
15.294922828674316,11.236695289611816,-9.533005714416504,-2.460565090179444,1.247386813163757,4.558276176452637,2,1
15.30449390411377,11.17926788330078,-9.542576789855955,-2.442239284515381,1.207069754600525,4.527732849121094,2,1
15.735201835632324,11.217554092407228,-9.408578872680664,-2.439795732498169,1.1716395616531372,4.489859580993652,2,1
15.763916015625,11.169695854187012,-9.523433685302734,-2.448347806930542,1.036027431488037,4.356690883636475,2,1
15.448063850402832,11.16012477874756,-9.322437286376951,-2.448347806930542,1.0103710889816284,4.315151691436768,2,1
15.007783889770508,11.05484104156494,-9.236295700073242,-2.442239284515381,0.8686503767967224,4.158770561218262,2,1
14.510076522827148,11.16012477874756,-8.910871505737305,-2.4446825981140137,0.8393288850784302,4.114788055419922,2,1
14.136795997619627,10.978270530700684,-8.863014221191406,-2.4165828227996826,0.7330382466316223,3.977954387664795,2,1
13.715660095214844,11.188838005065918,-8.652447700500488,-2.398256778717041,0.6829473376274109,3.914424419403076,2,1
13.533804893493652,10.987841606140137,-8.70030403137207,-2.38603949546814,0.6536257863044739,3.838677167892456,2,1
13.591233253479004,10.815558433532717,-8.528020858764648,-2.3823745250701904,0.5974262356758118,3.802025079727173,2,1
13.916656494140623,10.662418365478516,-8.480164527893066,-2.422691345214844,0.5021312236785889,3.683517217636109,2,1
14.395221710205078,10.327423095703123,-8.202595710754395,-2.4446825981140137,0.4715879559516907,3.643200159072876,2,1
14.615361213684082,10.193425178527832,-8.135597229003906,-2.51187801361084,0.351858377456665,3.528357744216919,2,1
14.50050449371338,9.91585636138916,-7.877171993255615,-2.5302038192749023,0.3200933933258056,3.491705656051636,2,1
14.060225486755373,9.92542839050293,-7.685746669769287,-2.541199445724488,0.1576032191514969,3.3768630027771,2,1
13.390235900878906,9.657432556152344,-7.264609336853027,-2.5314254760742188,0.1295034289360046,3.352428436279297,2,1
12.863814353942873,9.580862045288086,-7.28375244140625,-2.41413950920105,-0.0024434609804302,3.258355140686035,2,1
12.366107940673828,9.360722541809082,-7.140182495117188,-2.342057466506958,-0.0549778714776039,3.2204813957214355,2,1
11.92582893371582,9.437292098999023,-6.996613502502441,-2.2455406188964844,-0.1026253551244735,3.185051202774048,2,1
11.49512004852295,9.265009880065918,-6.843472957611084,-2.155132532119751,-0.1417207270860672,3.1593949794769287,2,1
11.17926788330078,9.198010444641112,-6.69990348815918,-2.101376533508301,-0.1722639948129654,3.13984751701355,2,1
11.112268447875977,9.140583038330078,-6.661618709564209,-1.9620990753173828,-0.2223549485206604,3.087312936782837,2,1
11.227124214172363,9.10229778289795,-6.728617191314697,-1.9352210760116573,-0.2480112910270691,3.0750956535339355,2,1
11.533404350280762,8.949155807495117,-6.62333345413208,-1.8961256742477417,-0.3066543638706207,3.02011775970459,2,1
11.849257469177246,8.71944522857666,-6.719046115875244,-1.913229823112488,-0.3469714522361755,2.9834659099578857,2,1
12.117254257202148,8.872587203979492,-6.642475605010986,-1.926669001579285,-0.3665191233158111,2.959031343460083,2,1
12.3278226852417,8.786445617675781,-6.671189785003662,-1.9449949264526367,-0.3860668241977691,2.9407052993774414,2,1
12.538392066955566,8.662018775939941,-6.604190349578857,-2.0305159091949463,-0.4789183437824249,2.883283853530884,2,1
12.614960670471191,8.690731048583984,-6.594619274139404,-2.0427334308624268,-0.5119050741195679,2.844188451766968,2,1
12.643674850463867,8.499305725097656,-6.508477687835693,-2.138028383255005,-0.6108652353286743,2.8014280796051025,2,1
12.35653591156006,8.317451477050781,-6.393621921539307,-2.177123785018921,-0.6511822938919067,2.783102035522461,2,1
12.174681663513184,8.279166221618652,-6.364908218383789,-2.2149972915649414,-0.6927211880683899,2.7598891258239746,2,1
11.820544242858888,8.336593627929688,-6.221338748931885,-2.3102922439575195,-0.7990117073059082,2.693915843963623,2,1
11.686546325683594,8.260024070739746,-6.2500529289245605,-2.361604928970337,-0.8454375267028809,2.665815830230713,2,1
11.30369472503662,8.068597793579102,-6.087340831756592,-2.406809091567993,-0.9224064946174622,2.6254987716674805,2,1
10.84427261352539,7.934599876403809,-5.9916276931762695,-2.425134897232056,-0.9480628371238708,2.615724802017212,2,1
10.700701713562012,7.877171993255615,-5.790630340576172,-2.4813344478607178,-1.0470229387283323,2.554638385772705,2,1
10.183853149414062,7.647461414337158,-5.560919761657715,-2.4862215518951416,-1.0775662660598757,2.5363125801086426,2,1
10.02114200592041,7.599605083465576,-5.417350769042969,-2.5082125663757324,-1.1655309200286863,2.478891134262085,2,1
9.92542839050293,7.561319828033447,-5.45563554763794,-2.513099670410156,-1.1911872625350952,2.464230537414551,2,1
9.82971477508545,7.475177764892578,-5.446064472198486,-2.5192081928253174,-1.225395679473877,2.4385740756988525,2,1
9.571290969848633,7.5326056480407715,-5.321637630462647,-2.509434223175049,-1.243721604347229,2.42391324043274,2,1
9.399007797241213,7.513463497161865,-5.225924968719482,-2.513099670410156,-1.2962559461593628,2.3848178386688232,2,1
9.226724624633787,7.494320869445801,-5.168496608734131,-2.515542984008789,-1.348790407180786,2.3432791233062744,2,1
9.140583038330078,7.369894027709961,-5.1876397132873535,-2.506990909576416,-1.3744467496871948,2.3212878704071045,2,1
8.968299865722656,7.36032247543335,-5.091926574707031,-2.515542984008789,-1.4098769426345823,2.291966199874878,2,1
8.958728790283203,7.417750358581543,-4.84307336807251,-2.4972169399261475,-1.4379768371582031,2.277305603027344,2,1
8.958728790283203,7.436892509460449,-4.890929222106934,-2.4837779998779297,-1.4770721197128296,2.2272145748138428,2,1
9.111868858337402,7.331608772277832,-4.890929222106934,-2.4911084175109863,-1.481959104537964,2.1905627250671387,2,1
9.016156196594238,7.322037696838379,-4.84307336807251,-2.502104043960572,-1.5222761631011963,2.1673498153686523,2,1
8.920443534851074,7.255038261413574,-4.929214954376221,-2.506990909576416,-1.5491541624069214,2.147802352905273,2,1
8.97787094116211,7.40817928314209,-4.881358623504639,-2.52165150642395,-1.5540411472320557,2.1319196224212646,2,1
8.882158279418945,7.350750923156738,-4.814359188079834,-2.5644123554229736,-1.5809191465377808,2.07327651977539,2,1
8.997013092041016,7.446464061737059,-4.948357582092285,-2.579072952270508,-1.590693116188049,2.053729057312012,2,1
8.872587203979492,7.609175682067871,-4.95792818069458,-2.604729175567627,-1.6468926668167114,1.955990433692932,2,1
8.652447700500488,7.52303409576416,-4.977071285247803,-2.609616279602051,-1.673770785331726,1.9339994192123413,2,1
8.671588897705078,7.551748752593994,-5.254638671875,-2.621833562850952,-1.7177530527114868,1.8118263483047483,2,1
8.834301948547363,7.800601959228516,-5.216352939605713,-2.6169466972351074,-1.7336355447769165,1.783726453781128,2,1
8.939584732055664,7.570890426635742,-5.350350856781006,-2.637716054916382,-1.7788395881652832,1.6358970403671265,2,1
9.044870376586914,7.599605083465576,-5.2737812995910645,-2.6389377117156982,-1.8057177066802976,1.590693116188049,2,1
8.709875106811523,7.628318786621094,-5.340780258178711,-2.640159368515014,-1.8154914379119875,1.5393803119659424,2,1
8.556733131408691,7.657032012939453,-5.235496044158936,-2.649933338165283,-1.86191725730896,1.3939944505691528,2,1
8.480164527893066,7.647461414337158,-5.225924968719482,-2.64138126373291,-1.874134540557861,1.3524556159973145,2,1
8.422735214233398,7.52303409576416,-5.216352939605713,-2.623055458068848,-1.918116807937622,1.2107348442077637,2,1
8.327022552490234,7.475177764892578,-5.225924968719482,-2.615724802017212,-1.930334091186524,1.1740829944610596,2,1
8.260024070739746,7.417750358581543,-5.034498691558838,-2.5888469219207764,-1.9816468954086304,1.0433577299118042,2,1
8.116454124450684,7.264609336853027,-5.08235502243042,-2.5864033699035645,-2.004859685897827,0.9908234477043152,2,1
8.154739379882812,7.207181453704834,-4.977071285247803,-2.5619688034057617,-2.053729057312012,0.8588765263557434,2,1
8.049454689025879,7.168896675109863,-4.948357582092285,-2.555860042572021,-2.076941967010498,0.7721336483955383,2,1
7.858029842376709,7.149754524230957,-4.680361270904541,-2.548529863357544,-2.1123721599578857,0.7342600226402283,2,1
7.925028324127197,6.939186096191406,-4.756931304931641,-2.541199445724488,-2.1392500400543213,0.6805038452148438,2,1
7.810173511505127,6.757331371307373,-4.575077056884766,-2.5314254760742188,-2.1404716968536377,0.6499606370925903,2,1
7.781459331512451,6.661618709564209,-4.460221767425537,-2.4801127910614014,-2.160019636154175,0.5534439086914062,2,1
7.590033531188965,6.355337619781494,-4.326223850250244,-2.4715607166290283,-2.163684606552124,0.5253441333770752,2,1
7.28375244140625,6.192625045776367,-4.240082263946533,-2.3799309730529785,-2.162462949752808,0.4434881508350372,2,1
7.034898281097412,6.068198204040527,-4.067798614501953,-2.348165988922119,-2.1734585762023926,0.4227187633514404,2,1
6.824329853057861,5.91505765914917,-3.828516006469727,-2.2321016788482666,-2.1514673233032227,0.3665191233158111,2,1
6.585048198699951,5.551348686218262,-3.7328035831451416,-2.201558351516724,-2.1319196224212646,0.3579670488834381,2,1
6.460620880126953,5.484349250793457,-3.675375461578369,-2.122145652770996,-2.0952677726745605,0.3286454975605011,2,1
6.374479293823242,5.474778175354004,-3.407379388809204,-2.076941967010498,-2.065946340560913,0.3213151097297668,2,1
6.03948450088501,5.292923927307129,-3.273381233215332,-2.0390682220458984,-2.053729057312012,0.3237585723400116,2,1
5.8097734451293945,5.1876397132873535,-3.1585261821746826,-1.9425513744354248,-1.973094701766968,0.3262020349502563,2,1
5.771488189697266,4.986642360687256,-2.9288148880004883,-1.9254472255706787,-1.947438359260559,0.3384193480014801,2,1
5.321637630462647,4.96750020980835,-2.871387481689453,-1.9010125398635864,-1.8496999740600584,0.3604104816913605,2,1
4.814359188079834,4.756931304931641,-2.7278177738189697,-1.907121181488037,-1.8167132139205933,0.3652974367141723,2,1
4.527220726013184,4.460221767425537,-2.612962484359741,-1.948660016059876,-1.6823228597640991,0.3885102868080139,2,1
4.211367607116699,4.393222808837891,-2.6321046352386475,-1.9706512689590447,-1.6420056819915771,0.4056144952774048,2,1
3.943371772766113,4.230510234832764,-2.4885356426239014,-1.99142062664032,-1.604132056236267,0.4117231667041778,2,1
3.799802541732788,3.97208571434021,-2.335394859313965,-2.0256290435791016,-1.4941763877868652,0.4288274049758911,2,1
3.598805427551269,4.019942283630371,-2.230110883712769,-2.0415115356445312,-1.4318681955337524,0.4373795092105865,2,1
3.5126638412475586,3.780659914016724,-2.258824348449707,-2.054950714111328,-1.3927726745605469,0.4422664046287536,2,1
3.0628130435943604,3.531806468963623,-2.239682197570801,-2.07327651977539,-1.2877038717269895,0.4691444933414459,2,1
2.9479575157165527,3.2350962162017822,-1.9908283948898315,-2.0781636238098145,-1.1630873680114746,0.4911356568336487,2,1
2.8522446155548096,3.3020951747894287,-2.1918253898620605,-2.072054862976074,-1.1093312501907349,0.5094615817070007,2,1
2.746960401535034,2.9766714572906494,-1.9334007501602173,-2.046398639678955,-0.9004153609275818,0.5827654600143433,2,1
2.517249345779419,2.651247262954712,-1.8568304777145384,-2.028072595596313,-0.8527678847312927,0.598647952079773,2,1
2.172682762145996,2.8139593601226807,-1.6271194219589231,-1.948660016059876,-0.6646214127540588,0.7000515460968018,2,1
2.421536684036255,2.823530673980713,-1.3016955852508545,-1.910786509513855,-0.5913175940513611,0.7550294399261475,2,1
2.1439692974090576,2.230110883712769,-1.6462620496749878,-1.8680258989334104,-0.4948008358478546,0.8356636166572571,2,1
2.4598217010498047,2.737389087677002,-1.4356937408447266,-1.8289304971694944,-0.4410447180271148,0.8710938096046448,2,1
2.44067931175232,2.699104070663452,-1.6462620496749878,-1.7531832456588743,-0.3274237811565399,0.9553932547569276,2,1
2.0003998279571533,3.053241729736328,-1.6462620496749878,-1.7153096199035645,-0.2492330223321914,0.998153805732727,2,1
1.7324036359786987,2.9862427711486816,-1.6079767942428589,-1.5222761631011963,-0.0415388382971286,1.1924089193344116,2,1
1.349552035331726,2.861815929412842,-1.6845470666885376,-1.4660764932632446,0.0244346093386411,1.2363911867141724,2,1
1.253839135169983,2.9383859634399414,-1.9238293170928955,-1.2791517972946167,0.2125810980796814,1.4330898523330688,2,1
1.3878371715545654,3.2159535884857178,-2.335394859313965,-1.2302825450897217,0.2565633952617645,1.4880677461624146,2,1
1.5792630910873413,3.263810157775879,-2.469393014907837,-1.1093312501907349,0.4410447180271148,1.6542229652404783,2,1
1.8472590446472168,2.8905298709869385,-2.603391170501709,-1.007927656173706,0.5546656250953674,1.7678439617156982,2,1
2.26839566230774,2.68953275680542,-2.4598217010498047,-0.9334021210670472,0.6805038452148438,1.8680258989334104,2,1
3.014956474304199,2.5363919734954834,-2.622533798217773,-0.8564330339431763,0.7892378568649292,1.947438359260559,2,1
3.579662799835205,2.9001011848449707,-2.8809585571289062,-0.8258897662162781,0.8454375267028809,1.976759910583496,2,1
4.326223850250244,2.9958138465881348,-2.957528829574585,-0.6878342032432556,1.0091493129730225,2.102598190307617,2,1
5.015356540679932,3.187239646911621,-3.043670415878296,-0.6414085030555725,1.0531316995620728,2.135585069656372,2,1
5.407779216766357,3.3308093547821045,-3.2350962162017822,-0.4605923891067505,1.1838568449020386,2.251649141311645,2,1
5.66620397567749,3.598805427551269,-3.34995174407959,-0.3860668241977691,1.2290607690811155,2.289522886276245,2,1
5.800202369689941,3.5126638412475586,-3.359523057937622,-0.3115412592887878,1.2681562900543213,2.3164007663726807,2,1
6.03948450088501,3.5700912475585938,-3.503092288970948,-0.2272418737411499,1.3072515726089478,2.348165988922119,2,1
6.393621921539307,3.905086755752564,-3.799802541732788,-0.1527163088321685,1.321912407875061,2.367713689804077,2,1
6.939186096191406,4.106083869934082,-4.182653903961182,0.0659734457731247,1.3927726745605469,2.422691345214844,2,1
7.379465103149414,4.345365524291992,-4.469792366027832,0.1478293985128402,1.4355332851409912,2.4385740756988525,2,1
7.657032012939453,4.364508152008057,-4.431507110595703,0.1857030391693115,1.4367550611495972,2.442239284515381,2,1
7.829315662384033,4.460221767425537,-4.661218643188477,0.2223549485206604,1.4611897468566897,2.4361305236816406,2,1
8.432307243347168,4.622933387756348,-5.0536417961120605,0.2492330223321914,1.4636330604553225,2.4324653148651123,2,1
8.767301559448242,4.938786029815674,-5.340780258178711,0.2968804836273193,1.481959104537964,2.387261152267456,2,1
9.083154678344728,4.919643402099609,-5.742774963378906,0.2871066629886627,1.4917329549789429,2.371378898620605,2,1
9.226724624633787,5.072783946990967,-5.867201328277588,0.2296853363513946,1.4966198205947876,2.298074960708618,2,1
9.34157943725586,5.235496044158936,-6.020341873168945,0.1893682181835174,1.4966198205947876,2.2565362453460693,2,1
9.609575271606444,5.302494525909424,-6.144768714904785,0.1698205471038818,1.4868459701538086,2.230879783630371,2,1
9.753145217895508,5.302494525909424,-6.269196033477783,0.1123991981148719,1.46729838848114,2.1783454418182373,2,1
9.91585636138916,5.436492443084717,-6.345765590667725,0.0745255574584007,1.46729838848114,2.135585069656372,2,1
10.155139923095703,5.484349250793457,-6.364908218383789,0.0525344088673591,1.451415777206421,2.1123721599578857,2,1
10.423135757446287,5.618347644805908,-6.508477687835693,0.0109955742955207,1.3988813161849976,1.9804250001907349,2,1
10.365708351135254,5.637490272521973,-6.527620315551758,0.0061086523346602,1.381777048110962,1.948660016059876,2,1
10.269994735717772,5.790630340576172,-6.62333345413208,0.0574213340878486,1.3170254230499268,1.8533650636672967,2,1
10.222138404846191,5.771488189697266,-6.575477123260498,0.0830776765942573,1.3023645877838137,1.8179349899291992,2,1
10.135995864868164,5.647061347961426,-6.4701924324035645,0.1759291887283325,1.227839112281799,1.6982053518295288,2,1
10.135995864868164,5.828916549682617,-6.527620315551758,0.2186897546052932,1.2034045457839966,1.6676621437072754,2,1
10.222138404846191,5.66620397567749,-6.613761901855469,0.2895500957965851,1.1582003831863403,1.595579981803894,2,1
5.867201328277588,1.722832441329956,-9.322437286376951,0.2907718420028686,-0.5436700582504272,0.4031710624694824,3,1
5.800202369689941,1.722832441329956,-9.418149948120115,0.2773328125476837,-0.5534439086914062,0.4288274049758911,3,1
5.742774963378906,1.5984054803848269,-9.34157943725586,0.2602285742759704,-0.5705481767654419,0.4728097021579742,3,1
5.627918720245361,1.5696916580200195,-9.293723106384276,0.2528982162475586,-0.5754350423812866,0.4874704480171203,3,1
5.589633941650391,1.464407444000244,-9.370293617248535,0.2357939779758453,-0.5693264007568359,0.5070181488990784,3,1
5.570490837097168,1.5696916580200195,-9.360722541809082,0.2211332023143768,-0.5766568183898926,0.5302309989929199,3,1
5.532206058502197,1.4452649354934692,-9.30329418182373,0.2089159041643142,-0.587652325630188,0.5400049090385437,3,1
5.493920803070068,1.3591231107711792,-9.207581520080566,0.1478293985128402,-0.5974262356758118,0.5974262356758118,3,1
5.675775527954102,1.3591231107711792,-9.18843936920166,0.1368338167667389,-0.6047565937042236,0.6133087277412415,3,1
5.580062389373779,1.3016955852508545,-9.073582649230955,0.0977384373545646,-0.6291911602020264,0.6719517707824707,3,1
5.560919761657715,1.3208380937576294,-8.997013092041016,0.0879645943641662,-0.6365215182304382,0.7073819637298584,3,1
5.637490272521973,1.2921241521835327,-9.10229778289795,0.0794124826788902,-0.6646214127540588,0.7293730974197388,3,1
5.493920803070068,1.244267821311951,-8.805586814880371,0.0818559452891349,-0.7061601877212524,0.8026769161224365,3,1
5.647061347961426,1.3208380937576294,-8.930014610290527,0.0733038261532783,-0.7244861721992493,0.8234463334083557,3,1
5.522634506225586,1.0145567655563354,-8.623733520507812,0.0525344088673591,-0.7513642311096191,0.8564330339431763,3,1
5.3694939613342285,1.2059825658798218,-8.50887680053711,0.0647517144680023,-0.7696901559829712,0.875980794429779,3,1
5.225924968719482,1.244267821311951,-8.547162055969238,0.0329867228865623,-0.7990117073059082,0.9419541358947754,3,1
5.3694939613342285,1.2346965074539185,-8.61416244506836,0.0134390350431203,-0.8124507665634155,0.9615018963813782,3,1
5.331209182739258,1.1581262350082395,-8.50887680053711,-0.0244346093386411,-0.8381071090698242,1.025031805038452,3,1
5.235496044158936,1.1102697849273682,-8.499305725097656,-0.0366519130766391,-0.8454375267028809,1.0335839986801147,3,1
5.216352939605713,1.196411371231079,-8.355737686157227,-0.067195177078247,-0.8869763016700745,1.1020008325576782,3,1
5.1876397132873535,1.1102697849273682,-8.327022552490234,-0.0928515195846557,-0.8930849432945251,1.1337658166885376,3,1
5.149354457855225,1.2155539989471436,-8.221738815307617,-0.1062905490398407,-0.9162978529930116,1.1618657112121582,3,1
5.206782341003418,1.2634104490280151,-8.039884567260742,-0.1221730485558509,-0.9236282110214232,1.1814132928848269,3,1
5.130211353302002,1.3782658576965332,-7.94417142868042,-0.1356120705604553,-0.949284553527832,1.2461650371551514,3,1
4.95792818069458,1.2059825658798218,-7.781459331512451,-0.1441642045974731,-0.956614911556244,1.264491081237793,3,1
5.0536417961120605,1.2921241521835327,-7.791030406951904,-0.1966986060142517,-0.9676105380058287,1.3194688558578491,3,1
5.015356540679932,1.464407444000244,-7.724031925201416,-0.2174680233001709,-0.9663888216018676,1.340238332748413,3,1
4.948357582092285,1.4931213855743408,-7.685746669769287,-0.294437050819397,-0.959058403968811,1.408655285835266,3,1
4.871786594390869,1.550549030303955,-7.676175117492676,-0.3200933933258056,-0.95783668756485,1.4501941204071045,3,1
4.948357582092285,1.6175481081008911,-7.743173599243164,-0.3286454975605011,-0.9517280459403992,1.4880677461624146,3,1
4.718646049499512,1.770688772201538,-7.513463497161865,-0.3176499307155609,-0.9651670455932616,1.510058879852295,3,1
4.862215995788574,1.7802599668502808,-7.484748840332031,-0.3005456924438476,-0.9627236127853394,1.577254056930542,3,1
4.642076015472412,1.9429720640182493,-7.389036178588867,-0.3005456924438476,-0.96883225440979,1.5943583250045776,3,1
4.441079139709473,2.1822540760040283,-7.322037696838379,-0.3176499307155609,-0.9749408960342408,1.6615535020828247,3,1
4.4027934074401855,2.2013967037200928,-7.427321910858154,-0.3335324227809906,-0.978606104850769,1.6811010837554932,3,1
4.335794448852539,2.3258235454559326,-7.293323516845703,-0.3824016451835632,-0.977384388446808,1.744631052017212,3,1
4.412365436553955,2.469393014907837,-7.207181453704834,-0.4043927788734436,-0.987158179283142,1.762956976890564,3,1
4.431507110595703,2.699104070663452,-7.341179847717285,-0.4605923891067505,-0.978606104850769,1.80816113948822,3,1
4.584648132324219,2.794816970825196,-7.101897716522217,-0.5656611919403076,-0.9761626720428468,1.8753563165664675,3,1
4.527220726013184,2.9288148880004883,-7.121039867401123,-0.5998696088790894,-0.9737191796302797,1.913229823112488,3,1
4.59421968460083,3.1585261821746826,-7.073184013366699,-0.6805038452148438,-0.970054030418396,1.9242254495620728,3,1
4.517648696899414,3.177668809890747,-7.015756130218506,-0.8197811245918274,-0.9737191796302797,1.9657642841339111,3,1
4.421936511993408,3.321237802505493,-6.757331371307373,-0.8600982427597046,-0.970054030418396,1.9718729257583616,3,1
4.555934429168701,3.4743783473968506,-6.757331371307373,-1.0054842233657837,-0.9993755221366882,1.9987510442733765,3,1
4.335794448852539,3.704089641571045,-6.508477687835693,-1.0445796251296997,-1.0115928649902344,2.009746551513672,3,1
4.211367607116699,3.876372575759888,-6.259624004364014,-1.2107348442077637,-1.045801281929016,2.02929425239563,3,1
4.316651821136475,4.000799655914307,-6.106483459472656,-1.242499828338623,-1.0702358484268188,2.032959461212158,3,1
4.316651821136475,4.039084911346436,-5.742774963378906,-1.4123203754425049,-1.1093312501907349,2.046398639678955,3,1
4.268795490264893,4.086941242218018,-5.302494525909424,-1.4575244188308716,-1.1203267574310305,2.054950714111328,3,1
4.019942283630371,4.067798614501953,-5.130211353302002,-1.6139060258865356,-1.1765265464782717,2.0757200717926025,3,1
3.8668015003204346,4.182653903961182,-4.709074974060059,-1.706757426261902,-1.2009611129760742,2.0891592502593994,3,1
3.790231227874756,4.29750919342041,-4.431507110595703,-1.7373007535934448,-1.2095131874084473,2.101376533508301,3,1
3.589233875274658,4.383650779724121,-4.01037073135376,-1.870469331741333,-1.244943380355835,2.141693592071533,3,1
3.589233875274658,4.488935470581055,-3.838087558746338,-1.9413297176361084,-1.2730430364608765,2.162462949752808,3,1
3.541377544403076,4.412365436553955,-3.598805427551269,-1.9779815673828125,-1.2852604389190674,2.188119411468506,3,1
3.560519933700561,4.469792366027832,-3.273381233215332,-2.0231857299804688,-1.29381263256073,2.20278000831604,3,1
3.6945180892944336,4.488935470581055,-3.053241729736328,-2.0928242206573486,-1.3158037662506104,2.2406535148620605,3,1
3.751945972442627,4.441079139709473,-2.9001011848449707,-2.134362936019897,-1.3316861391067505,2.263866424560547,3,1
3.943371772766113,4.441079139709473,-2.545963287353516,-2.160019636154175,-1.3536773920059204,2.282192707061768,3,1
3.962514162063599,4.441079139709473,-2.1439692974090576,-2.309070587158203,-1.4037683010101318,2.353053092956543,3,1
4.374080181121826,4.335794448852539,-1.9812570810317995,-2.3738222122192383,-1.4453071355819702,2.3994784355163574,3,1
4.823930263519287,4.4027934074401855,-1.502692461013794,-2.4385740756988525,-1.4966198205947876,2.4471261501312256,3,1
5.359922885894775,4.326223850250244,-1.3399807214736938,-2.4691171646118164,-1.5161675214767456,2.4691171646118164,3,1
6.049056053161621,4.335794448852539,-1.0336995124816897,-2.5448644161224365,-1.567480206489563,2.5302038192749023,3,1
6.489335536956787,4.354937553405762,-0.7752745151519775,-2.596177339553833,-1.5943583250045776,2.56563401222229,3,1
7.15932559967041,4.469792366027832,-0.2967100143432617,-2.6511549949646,-1.663996934890747,2.61939024925232,3,1
7.637890338897705,4.374080181121826,-0.1435693651437759,-2.6841418743133545,-1.692096710205078,2.662150621414185,3,1
8.499305725097656,4.555934429168701,0.4689932465553283,-2.7012460231781006,-1.7214182615280151,2.690250396728516,3,1
8.872587203979492,4.737788677215576,0.8901299834251404,-2.753780603408813,-1.819156646728516,2.7904324531555176,3,1
9.446864128112791,4.910072326660156,1.454836130142212,-2.7574455738067627,-1.859473705291748,2.8710665702819824,3,1
10.75813102722168,4.996213912963867,2.1822540760040283,-2.7598891258239746,-1.9413297176361084,2.9126055240631104,3,1
11.83011531829834,5.024927616119385,2.651247262954712,-2.763554096221924,-2.085493803024292,3.032335042953491,3,1
12.2799654006958,5.283352375030518,2.8905298709869385,-2.7598891258239746,-2.119702339172364,3.0641000270843506,3,1
12.643674850463867,5.340780258178711,3.2446677684783936,-2.7452282905578613,-2.183232307434082,3.1105258464813232,3,1
13.24666690826416,5.178067684173584,3.426522016525269,-2.731789350509644,-2.2235496044158936,3.148399353027344,3,1
14.289936065673828,5.264209270477295,3.828516006469727,-2.680476665496826,-2.277305603027344,3.2143728733062744,3,1
15.371493339538574,5.474778175354004,4.383650779724121,-2.652376890182495,-2.2968533039093018,3.229033708572388,3,1
16.558332443237305,5.312066555023193,4.508078098297119,-2.515542984008789,-2.3408358097076416,3.304780960083008,3,1
17.82174301147461,5.647061347961426,5.254638671875,-2.460565090179444,-2.344500780105591,3.3341026306152344,3,1
18.874584197998047,5.848058700561523,5.742774963378906,-2.219884395599365,-2.3102922439575195,3.412293195724488,3,1
19.257436752319336,6.001199245452881,6.32662296295166,-2.1319196224212646,-2.2846360206604004,3.455053806304932,3,1
20.08056831359864,6.068198204040527,6.776473522186279,-1.9889771938323968,-2.2149972915649414,3.495370864868164,3,1
20.92284202575684,6.010769844055176,6.86261510848999,-1.930334091186524,-2.169793128967285,3.51247501373291,3,1
23.066808700561523,5.857629776000977,7.456035614013672,-1.810604453086853,-2.0622808933258057,3.5552356243133545,3,1
24.205793380737305,5.8097734451293945,7.886743545532227,-1.7641788721084597,-1.99142062664032,3.556457281112671,3,1
25.88076972961425,5.484349250793457,8.729016304016113,-1.6835445165634155,-1.8387043476104736,3.546683549880981,3,1
28.187450408935547,5.359922885894775,9.743573188781738,-1.655444860458374,-1.7641788721084597,3.530801057815552,3,1
30.59941673278809,5.637490272521973,10.384849548339844,-1.3915510177612305,-1.470963478088379,3.450166702270508,3,1
32.09253692626953,6.068198204040527,11.255837440490724,-1.274264931678772,-1.3756684064865112,3.4318408966064453,3,1
32.906097412109375,6.3840508460998535,11.648261070251465,-0.656069278717041,-0.9175195693969728,3.3573155403137207,3,1
34.59064483642578,7.121039867401123,11.763115882873535,-0.1539380401372909,-0.5839871764183044,3.324328660964966,3,1
36.04547882080078,7.5326056480407715,12.05025577545166,0.0158824957907199,-0.4092797040939331,3.316998243331909,3,1
37.67259979248047,7.781459331512451,12.346964836120604,0.4899139106273651,0.0158824957907199,3.2534682750701904,3,1
38.792442321777344,8.097311973571777,12.37567901611328,0.6780604124069214,0.3445279896259308,3.2070424556732178,3,1
40.70669937133789,8.317451477050781,12.519248008728027,0.8808676600456238,0.8979718685150146,3.0921998023986816,3,1
43.81736755371094,8.47059154510498,12.308679580688477,0.8967502117156982,1.1716395616531372,3.012787342071533,3,1
46.439903259277344,8.872587203979492,12.346964836120604,0.588874101638794,2.332283496856689,2.626720428466797,3,1
48.94758224487305,9.198010444641112,12.662817001342772,0.4483751058578491,2.6560420989990234,2.509434223175049,3,1
50.73741149902344,9.437292098999023,12.643674850463867,-0.1038470938801765,3.8960983753204346,2.1319196224212646,3,1
53.34080505371094,9.370293617248535,12.35653591156006,-0.2076941877603531,4.249178886413574,1.876577973365784,3,1
57.39903259277344,8.97787094116211,12.35653591156006,-0.3176499307155609,5.263215065002441,1.7592918872833252,3,1
60.88298034667969,8.910871505737305,12.452248573303224,0.1392772644758224,6.858794689178467,1.3524556159973145,3,1
65.62076568603516,8.97787094116211,11.629117965698242,0.7819074988365173,7.952243804931641,1.1203267574310305,3,1
73.31608581542969,8.70030403137207,11.03569793701172,1.1447614431381226,8.428718566894531,1.0115928649902344,3,1
80.37969970703125,8.815157890319824,9.98285675048828,2.758667469024658,10.31018352508545,0.4886921942234039,3,1
90.42955780029295,9.351151466369627,7.465607166290283,3.1593949794769287,10.82697582244873,0.3237585723400116,3,1
98.71829223632812,9.159724235534668,5.321637630462647,4.26017427444458,12.771970748901367,-0.3579670488834381,3,1
113.26665496826172,8.441879272460938,2.4598217010498047,4.492302894592285,13.31808376312256,-0.5827654600143433,3,1
121.81381225585938,8.260024070739746,-0.4881358444690704,4.725653171539307,15.18610954284668,-1.5173892974853516,3,1
133.12709045410156,8.193024635314941,-3.847658634185791,4.708549499511719,15.858061790466309,-2.0586156845092773,3,1
146.0770263671875,7.5326056480407715,-7.800601959228516,4.681671619415283,17.73586082458496,-2.7488934993743896,3,1
161.96539306640625,4.938786029815674,-11.17926788330078,4.697553634643555,18.246545791625977,-3.016452550888061,3,1
175.2407684326172,3.4743783473968506,-14.328222274780272,5.051855564117432,19.97040557861328,-4.142888069152832,3,1
189.49240112304688,1.5409778356552124,-16.855043411254883,5.240002155303955,20.29905128479004,-4.475198745727539,3,1
200.89181518554688,-0.5551348924636841,-19.104297637939453,6.142860889434815,21.150598526000977,-5.863084316253662,3,1
140.71710205078125,61.35197448730469,-177.08802795410156,-20.037601470947266,9.672440528869627,-6.036570549011231,3,1
51.15855026245117,4.211367607116699,-123.0580825805664,-17.29848289489746,11.627208709716797,-5.165476799011231,3,1
77.65188598632812,7.925028324127197,-38.50530242919922,-7.04083251953125,12.129340171813965,-2.613281488418579,3,1
113.60165405273438,0.4498506784439087,57.22674560546875,-2.1368067264556885,12.536176681518556,-1.987755537033081,3,1
114.6449203491211,-11.944971084594728,-34.36093521118164,1.6859880685806274,14.83180809020996,-1.722640037536621,3,1
94.66006469726562,12.614960670471191,43.78865814208984,5.771454811096191,13.946053504943848,-1.5344934463500977,3,1
99.50314331054688,18.175880432128903,1.1198410987854004,7.85450553894043,14.980859756469728,-1.9352210760116573,3,1
107.75359344482422,10.74855899810791,-11.140981674194336,9.255829811096191,14.613118171691896,-3.02011775970459,3,1
106.08818817138672,3.225525140762329,5.627918720245361,9.148317337036133,14.840360641479492,-3.556457281112671,3,1
109.57213592529295,0.114855483174324,-13.581661224365234,7.408573627471924,15.2423095703125,-5.185023784637451,3,1
107.62916564941406,0.4881358444690704,-21.190837860107425,5.674938201904297,14.984524726867676,-5.499008655548096,3,1
104.07821655273438,2.0003998279571533,-29.259435653686523,2.774549722671509,15.07737636566162,-6.367659091949463,3,1
108.32786560058594,0.7944172024726868,-7.570890426635742,2.169793128967285,15.296065330505373,-6.624222755432129,3,1
106.90174865722656,2.68953275680542,-11.638689041137695,1.1814132928848269,15.173892974853516,-6.754947662353516,3,1
106.4901885986328,-1.3782658576965332,-28.20659446716309,1.1679743528366089,15.083484649658203,-6.913773059844971,3,1
103.14022827148438,-0.4211367666721344,-14.950355529785156,1.1765265464782717,14.807373046875,-7.061602115631104,3,1
100.74740600585938,-2.603391170501709,-14.510076522827148,1.5943583250045776,14.62533473968506,-7.177666664123535,3,1
97.5027313232422,-3.924229145050049,-10.030713081359863,3.6089916229248047,13.81532859802246,-7.601606845855713,3,1
91.67382049560548,-5.848058700561523,-13.907086372375488,4.477642059326172,13.61496353149414,-7.783645153045654,3,1
87.20403289794922,-7.838886737823486,-5.474778175354004,7.635815620422363,12.390789985656738,-8.60586929321289,3,1
81.9111099243164,-9.791430473327637,-11.073983192443848,8.651073455810547,12.03282356262207,-8.875871658325195,3,1
76.50332641601562,-10.183853149414062,-9.34157943725586,11.96074104309082,10.284527778625488,-9.936333656311035,3,1
70.06185150146484,-11.188838005065918,-5.637490272521973,12.66079330444336,9.804387092590332,-10.247875213623049,3,1
65.63034057617188,-11.858829498291016,-7.245467185974121,14.696195602416992,7.821518421173096,-11.280237197875977,3,1
61.92625427246094,-11.753543853759766,-2.8139593601226807,15.04072380065918,7.308391571044922,-11.797029495239258,3,1
57.56174087524414,-11.294122695922852,-3.34995174407959,15.376699447631836,5.85086727142334,-11.999836921691896,3,1
54.78606796264648,-9.954142570495604,-7.111469268798828,15.289957046508787,3.915646314620972,-12.329704284667969,3,1
50.153568267822266,-9.446864128112791,-2.3258235454559326,15.1665620803833,3.367089033126831,-12.361468315124512,3,1
46.45904159545898,-8.729016304016113,-2.6608188152313232,14.230716705322266,1.4587461948394775,-12.220970153808594,3,1
44.3150749206543,-7.953742504119873,-2.1918253898620605,13.79455852508545,0.7648032903671265,-12.087800979614258,3,1
41.57768630981445,-6.336194515228272,-4.814359188079834,13.413378715515137,0.3445279896259308,-11.9729585647583,3,1
38.46701431274414,-5.8097734451293945,-3.005384922027588,12.010831832885742,-0.9908234477043152,-11.50014877319336,3,1
36.96432495117188,-5.206782341003418,-4.048655986785889,11.590557098388672,-1.2864822149276731,-11.35109806060791,3,1
36.50490188598633,-5.216352939605713,-1.1198410987854004,9.942441940307615,-2.230879783630371,-10.709689140319824,3,1
36.236907958984375,-5.359922885894775,-1.1772687435150146,9.342573165893556,-2.421469688415528,-10.274752616882324,3,1
35.040496826171875,-5.790630340576172,-0.4689932465553283,8.014552116394043,-2.8845055103302,-10.038958549499512,3,1
32.2552490234375,-6.230910778045654,-0.229710966348648,5.778785228729248,-3.341432809829712,-9.272934913635254,3,1
31.21197891235352,-6.230910778045654,-1.6941183805465698,5.227784633636475,-3.41473650932312,-9.083566665649414,3,1
29.07758140563965,-6.757331371307373,0.6891329288482666,4.050036430358887,-3.536909580230713,-8.633968353271484,3,1
26.598615646362305,-7.599605083465576,-0.6699903607368469,3.556457281112671,-3.569896459579468,-8.451931953430176,3,1
25.50749015808105,-8.202595710754395,-0.2105683833360672,1.969429612159729,-3.5491268634796143,-7.872830867767334,3,1
23.60280036926269,-8.815157890319824,1.8759729862213133,1.604132056236267,-3.5417966842651367,-7.703010559082031,3,1
22.39682006835937,-9.3128662109375,1.1389836072921753,0.6340781450271606,-3.4012975692749023,-7.06282377243042,3,1
21.487548828125,-10.202996253967283,3.2350962162017822,0.4948008358478546,-3.356093406677246,-6.908885955810547,3,1
15.495920181274414,-12.2799654006958,3.780659914016724,2.713463306427002,-3.259576797485352,-3.293785333633423,3,1
15.582060813903809,-12.07896900177002,3.1106693744659424,2.554638385772705,-3.2705724239349365,-3.0531044006347656,3,1
15.658631324768066,-12.05025577545166,2.1822540760040283,2.3738222122192383,-3.2485814094543457,-2.8747317790985107,3,1
15.438490867614746,-11.935399055480955,2.1343977451324463,2.0024163722991943,-3.2229249477386475,-2.675589799880981,3,1
15.42892074584961,-12.021539688110352,3.31166672706604,1.4098769426345823,-3.180164337158203,-2.388483047485352,3,1
15.342779159545898,-12.193824768066406,2.44067931175232,1.138652801513672,-3.154508113861084,-2.276083707809448,3,1
15.218351364135742,-12.748958587646484,2.421536684036255,0.0769690200686454,-3.045774221420288,-1.888795256614685,3,1
14.69193172454834,-13.074383735656738,3.627519130706787,-0.1490511149168014,-3.0213394165039062,-1.7935004234313965,3,1
14.299509048461914,-13.342379570007324,3.5126638412475586,-0.8527678847312927,-2.8991665840148926,-1.4184291362762451,3,1
14.270794868469238,-13.591233253479004,3.034099102020264,-0.9859364628791808,-2.8539624214172363,-1.3475687503814695,3,1
13.840085983276367,-13.878372192382812,3.34995174407959,-1.3194688558578491,-2.724458932876587,-1.0103710889816284,3,1
13.773086547851562,-13.69651699066162,4.029513359069824,-1.381777048110962,-2.689028739929199,-0.8979718685150146,3,1
13.323237419128418,-14.165510177612305,4.086941242218018,-1.4330898523330688,-2.637716054916382,-0.8148941993713379,3,1
13.256237030029297,-14.328222274780272,4.019942283630371,-1.528384804725647,-2.503325700759888,-0.5595525503158569,3,1
13.103097915649414,-14.510076522827148,3.5509488582611084,-1.5344934463500977,-2.46178674697876,-0.4984660446643829,3,1
12.949955940246582,-14.5675048828125,3.818945169448853,-1.46729838848114,-2.318844556808472,-0.2834414541721344,3,1
13.150954246520996,-14.548362731933594,4.058227062225342,-1.4257594347000122,-2.289522886276245,-0.2370157092809677,3,1
12.940384864807127,-14.653645515441896,4.441079139709473,-1.2180652618408203,-2.166128158569336,-0.0513126775622367,3,1
12.65324592590332,-14.615361213684082,4.268795490264893,-1.175304651260376,-2.130697965621948,-0.0122173046693205,3,1
12.433106422424316,-14.481362342834473,4.240082263946533,-1.0580185651779177,-2.001194477081299,0.1478293985128402,3,1
12.193824768066406,-14.62493133544922,4.680361270904541,-1.038470983505249,-1.976759910583496,0.2370157092809677,3,1
11.657833099365234,-14.376079559326172,4.766502857208252,-1.0335839986801147,-1.8655823469161987,0.2785545289516449,3,1
11.16012477874756,-14.30907917022705,5.197210788726807,-1.0140362977981567,-1.7201964855194092,0.4276056587696075,3,1
10.77727222442627,-14.136795997619627,4.890929222106934,-1.0054842233657837,-1.703092336654663,0.46547931432724,3,1
10.365708351135254,-14.060225486755373,4.938786029815674,-0.9859364628791808,-1.5528194904327393,0.6133087277412415,3,1
9.8871431350708,-13.878372192382812,5.331209182739258,-0.9859364628791808,-1.5161675214767456,0.6548475623130798,3,1
9.293723106384276,-13.82094383239746,5.245067596435547,-1.0152579545974731,-1.36345112323761,0.807563841342926,3,1
9.10229778289795,-13.763516426086426,5.245067596435547,-1.027475357055664,-1.320690631866455,0.8576548099517822,3,1
8.757731437683105,-13.801800727844238,5.091926574707031,-1.0372490882873535,-1.2486084699630735,0.9077457189559937,3,1
8.317451477050781,-13.5242338180542,5.388636112213135,-1.045801281929016,-1.2107348442077637,0.9505062699317932,3,1
8.116454124450684,-13.457234382629396,5.283352375030518,-1.0836749076843262,-1.038470983505249,1.1032226085662842,3,1
7.992027759552002,-13.418950080871582,5.618347644805908,-1.0983357429504397,-0.9798278212547302,1.166752576828003,3,1
7.714460372924805,-13.23709487915039,5.7619171142578125,-1.1215485334396362,-0.9187413454055786,1.2168434858322144,3,1
7.369894027709961,-13.30409336090088,5.359922885894775,-1.1398744583129885,-0.8698720932006836,1.2620476484298706,3,1
6.900900363922119,-13.131810188293455,5.618347644805908,-1.225395679473877,-0.6878342032432556,1.4343115091323853,3,1
6.661618709564209,-12.739387512207031,5.446064472198486,-1.242499828338623,-0.645073652267456,1.484402418136597,3,1
6.230910778045654,-12.461821556091309,5.302494525909424,-1.3255774974822998,-0.455705463886261,1.6786577701568604,3,1
5.943771362304688,-11.992827415466309,5.245067596435547,-1.340238332748413,-0.4019493162631988,1.827708721160889,3,1
5.838487148284912,-11.83011531829834,5.178067684173584,-1.3927726745605469,-0.2504547536373138,1.891238808631897,3,1
5.618347644805908,-11.676974296569824,5.3694939613342285,-1.4306464195251465,-0.1942551434040069,1.969429612159729,3,1
5.656632423400879,-11.322836875915527,5.101498126983643,-1.4440854787826538,-0.1148426681756973,2.0500636100769043,3,1
5.551348686218262,-10.968698501586914,4.871786594390869,-1.528384804725647,0.0012217304902151,2.177123785018921,3,1
5.618347644805908,-10.518848419189451,4.5655059814453125,-1.6004669666290283,0.1111774742603302,2.27852725982666,3,1
5.66620397567749,-10.202996253967283,4.450649738311768,-1.6578881740570068,0.1576032191514969,2.3298401832580566,3,1
5.513063430786133,-9.868000030517578,4.220939636230469,-1.7580702304840088,0.2541199326515198,2.4300220012664795,3,1
5.656632423400879,-9.408578872680664,4.029513359069824,-1.8008307218551636,0.2846632003784179,2.4727823734283447,3,1
5.867201328277588,-9.159724235534668,3.598805427551269,-1.996307611465454,0.436157763004303,2.610837936401367,3,1
5.972485542297363,-8.958728790283203,3.369094133377075,-2.0781636238098145,0.4960225820541382,2.668259382247925,3,1
5.953342914581299,-8.451449394226074,3.081955671310425,-2.129476308822632,0.5302309989929199,2.6926939487457275,3,1
5.972485542297363,-8.365307807922363,2.9383859634399414,-2.350609302520752,0.6414085030555725,2.805093288421631,3,1
5.876771926879883,-7.94417142868042,2.4981069564819336,-2.4923300743103027,0.7305948734283447,2.8625144958496094,3,1
5.828916549682617,-7.609175682067871,2.287538528442383,-2.6010642051696777,0.7843509316444397,2.9138271808624268,3,1
5.66620397567749,-7.322037696838379,2.1822540760040283,-2.658485651016236,0.8148941993713379,2.9407052993774414,3,1
5.398208141326904,-7.101897716522217,1.8376877307891848,-2.8234190940856934,0.90408056974411,3.018896102905273,3,1
5.417350769042969,-6.546762466430664,1.703689694404602,-2.858849287033081,0.9334021210670472,3.033556699752808,3,1
5.426921844482422,-6.498906135559082,1.3878371715545654,-2.9407052993774414,0.988379955291748,3.0799825191497803,3,1
5.407779216766357,-6.211767673492432,1.2825528383255005,-2.961474657058716,1.0005972385406494,3.0946433544158936,3,1
5.388636112213135,-5.838487148284912,1.0145567655563354,-3.0384435653686523,1.0958921909332275,3.137403726577759,3,1
5.312066555023193,-5.436492443084717,0.7848458290100098,-3.045774221420288,1.10444438457489,3.1447341442108154,3,1
5.225924968719482,-5.120640754699707,0.5264209508895874,-3.057991504669189,1.175304651260376,3.185051202774048,3,1
5.120640754699707,-4.680361270904541,0.3924229145050049,-3.0421087741851807,1.19607412815094,3.208264112472534,3,1
5.149354457855225,-4.517648696899414,0.2584248781204223,-3.015230655670166,1.2461650371551514,3.224146842956543,3,1
4.910072326660156,-4.144368648529053,0.2488535493612289,-2.9272661209106445,1.2852604389190674,3.2681288719177246,3,1
4.6995038986206055,-3.9146578311920166,0.066999040544033,-2.8942794799804688,1.3060299158096311,3.282789707183838,3,1
4.680361270904541,-3.5126638412475586,-0.0382851622998714,-2.8160886764526367,1.3182471990585327,3.3121113777160645,3,1
4.575077056884766,-3.3308093547821045,-0.1244267746806144,-2.7574455738067627,1.3341296911239624,3.346319913864136,3,1
4.546363353729248,-3.2446677684783936,-0.3254238963127136,-2.6816985607147217,1.3548990488052368,3.3707544803619385,3,1
4.450649738311768,-2.775674343109131,-0.6795615553855896,-2.649933338165283,1.36345112323761,3.3927454948425293,3,1
4.536791324615479,-2.565105676651001,-0.6795615553855896,-2.5607471466064453,1.4196507930755615,3.4489450454711914,3,1
4.421936511993408,-2.1822540760040283,-1.1389836072921753,-2.5497515201568604,1.4465289115905762,3.4660494327545166,3,1
4.479364395141602,-1.8664017915725708,-1.3016955852508545,-2.5057692527771,1.529606580734253,3.558900833129883,3,1
4.364508152008057,-1.7324036359786987,-1.4931213855743408,-2.4911084175109863,1.5723670721054075,3.5918874740600586,3,1
4.412365436553955,-1.3974084854125977,-1.636690616607666,-2.48988676071167,1.6310101747512815,3.645643711090088,3,1
4.201797008514404,-1.3304094076156616,-1.770688772201538,-2.4691171646118164,1.6786577701568604,3.70184326171875,3,1
4.134798049926758,-1.0719846487045288,-1.6941183805465698,-2.456899881362915,1.7201964855194092,3.754377603530884,3,1
4.192224979400635,-0.851844847202301,-1.8664017915725708,-2.437352180480957,1.7592918872833252,3.8069121837615967,3,1
4.364508152008057,-0.7752745151519775,-2.1343977451324463,-2.431243658065796,1.7800612449645996,3.828903436660767,3,1
4.479364395141602,-0.4019941985607147,-2.2205395698547363,-2.4080307483673096,1.8460347652435305,3.919311285018921,3,1
4.689932346343994,-0.1244267746806144,-2.431107997894287,-2.3994784355163574,1.859473705291748,3.944967746734619,3,1
4.823930263519287,0.1818545162677765,-2.622533798217773,-2.37626576423645,1.951103568077088,4.039041042327881,3,1
5.168496608734131,0.4211367666721344,-2.775674343109131,-2.3738222122192383,1.9706512689590447,4.101349353790283,3,1
5.50349235534668,0.7178468704223633,-3.081955671310425,-2.371378898620605,2.0415115356445312,4.145331382751465,3,1
5.876771926879883,0.9667003750801086,-3.369094133377075,-2.3994784355163574,2.1539108753204346,4.27605676651001,3,1
6.20219612121582,0.9188438653945924,-3.455235958099365,-2.417804718017578,2.1893410682678223,4.315151691436768,3,1
6.451050281524658,0.8997013568878174,-3.436093330383301,-2.495995283126831,2.289522886276245,4.455650806427002,3,1
6.585048198699951,0.9858429431915284,-3.531806468963623,-2.5253169536590576,2.3127357959747314,4.499633312225342,3,1
6.929614543914795,1.0528419017791748,-3.589233875274658,-2.6841418743133545,2.3823745250701904,4.62302827835083,3,1
7.293323516845703,1.2346965074539185,-3.7710886001586914,-2.7232372760772705,2.388483047485352,4.651127815246582,3,1
7.465607166290283,1.4835500717163086,-3.7710886001586914,-2.891835927963257,2.42391324043274,4.807509422302246,3,1
7.934599876403809,1.5984054803848269,-3.751945972442627,-2.922379493713379,2.417804718017578,4.846604824066162,3,1
8.47059154510498,1.8376877307891848,-3.809373617172241,-3.000570058822632,2.415361166000366,4.9846601486206055,3,1
8.70030403137207,2.0865414142608643,-3.751945972442627,-3.011565685272217,2.411695957183838,5.050633907318115,3,1
9.437292098999023,2.383251428604126,-4.039084911346436,-3.0079004764556885,2.4019222259521484,5.10316801071167,3,1
10.068997383117676,2.651247262954712,-4.115654945373535,-2.9468140602111816,2.39214825630188,5.272988796234131,3,1
10.710274696350098,2.909672260284424,-4.240082263946533,-2.924822807312012,2.39214825630188,5.323079586029053,3,1
11.140981674194336,2.9958138465881348,-4.374080181121826,-2.8014280796051025,2.3848178386688232,5.505117893218994,3,1
11.839686393737791,3.455235958099365,-4.67078971862793,-2.7794368267059326,2.387261152267456,5.545434474945068,3,1
12.557533264160156,3.5126638412475586,-5.178067684173584,-2.719572067260742,2.394591808319092,5.712811470031738,3,1
13.23709487915039,3.933800458908081,-5.206782341003418,-2.6988024711608887,2.4055874347686768,5.79466724395752,3,1
13.85922908782959,4.316651821136475,-5.072783946990967,-2.704911231994629,2.4080307483673096,5.838649749755859,3,1
14.376079559326172,4.689932346343994,-5.264209270477295,-2.660928964614868,2.378709316253662,5.9754838943481445,3,1
15.17049503326416,4.95792818069458,-5.2737812995910645,-2.6010642051696777,2.328618049621582,6.025574684143066,3,1
15.974483489990234,5.225924968719482,-5.560919761657715,-2.5277602672576904,2.2626447677612305,6.050009250640869,3,1
16.87418556213379,5.771488189697266,-6.010769844055176,-2.4935519695281982,2.2272145748138428,6.057339668273926,3,1
17.257036209106445,6.230910778045654,-6.278766632080078,-2.42391324043274,2.1258111000061035,6.057339668273926,3,1
17.706886291503906,6.881758213043213,-6.719046115875244,-2.4129176139831543,2.0989327430725098,6.053674221038818,3,1
17.831314086914062,7.503891944885254,-6.719046115875244,-2.38603949546814,2.012190103530884,6.048787593841553,3,1
18.415163040161133,7.791030406951904,-6.9583282470703125,-2.3970351219177246,1.973094701766968,6.037792205810547,3,1
19.07558250427246,8.432307243347168,-7.197610855102539,-2.409252405166626,1.957212209701538,6.039013862609863,3,1
19.68814468383789,8.987441062927246,-7.494320869445801,-2.522873640060425,1.8863518238067627,6.054895877838135,3,1
20.03271102905273,9.571290969848633,-7.609175682067871,-2.583960056304932,1.869247555732727,6.067113399505615,3,1
20.109281539916992,9.906286239624023,-8.126026153564453,-2.741563320159912,1.7983871698379517,6.06833553314209,3,1
20.20499420166016,10.250852584838867,-8.403594017028809,-3.1031954288482666,1.684766411781311,6.02435302734375,3,1
20.62613105773925,10.537991523742676,-8.566306114196777,-3.224146842956543,1.6456708908081057,6.00236177444458,3,1
20.989839553833008,11.026126861572266,-8.61416244506836,-3.7470474243164062,1.478293776512146,5.911953449249268,3,1
21.420549392700195,11.294122695922852,-8.652447700500488,-3.87532901763916,1.411098599433899,5.876523494720459,3,1
21.71725845336914,11.696117401123049,-8.7385892868042,-4.075692653656006,1.2889256477355957,5.810550212860107,3,1
21.899112701416016,12.126825332641602,-8.652447700500488,-4.134335994720459,1.2205088138580322,5.79100227355957,3,1
21.85125541687012,12.63410472869873,-8.499305725097656,-4.184426784515381,1.0054842233657837,5.716476917266846,3,1
21.535404205322266,13.016955375671388,-8.030312538146973,-4.1551055908203125,0.9517280459403992,5.701816082000732,3,1
21.229122161865234,13.44766330718994,-7.752745151519775,-3.899763584136963,0.7330382466316223,5.685933589935303,3,1
21.420549392700195,13.619946479797363,-7.590033531188965,-3.721391201019287,0.6206390857696533,5.70548152923584,3,1
21.812971115112305,13.811372756958008,-7.561319828033447,-3.645643711090088,0.5644394755363464,5.716476917266846,3,1
21.82254219055176,13.945369720458984,-7.379465103149414,-3.51247501373291,0.3933972120285034,5.759237289428711,3,1
21.870397567749023,14.222938537597656,-7.475177764892578,-3.500257730484009,0.3579670488834381,5.776341915130615,3,1
22.061824798583984,14.194223403930664,-7.52303409576416,-3.5405750274658203,0.2651154994964599,5.798333168029785,3,1
22.425535202026367,14.31865119934082,-7.302894592285156,-3.62609601020813,0.1514945775270462,5.806884765625,3,1
22.47339057922364,14.490934371948242,-6.98704195022583,-3.6957345008850098,0.090408056974411,5.801998138427734,3,1
22.1671085357666,14.5675048828125,-6.671189785003662,-3.858224868774414,-0.1026253551244735,5.775120258331299,3,1
21.39183616638184,14.55793285369873,-6.297909259796143,-3.9009852409362793,-0.1429424583911895,5.762902736663818,3,1
21.190837860107425,14.596219062805176,-5.876771926879883,-3.9706239700317374,-0.3640756905078888,5.663942337036133,3,1
21.123838424682617,14.768502235412598,-5.838487148284912,-3.9742894172668457,-0.4679227471351623,5.588195323944092,3,1
21.047269821166992,14.931214332580566,-5.331209182739258,-3.9498543739318848,-0.5326744914054871,5.538104057312012,3,1
20.760129928588867,15.15135383605957,-5.072783946990967,-3.761708021163941,-0.7244861721992493,5.347514152526856,3,1
20.84627151489257,15.18006706237793,-4.852644443511963,-3.7067301273345934,-0.76846843957901,5.292536735534668,3,1
20.92284202575684,15.18006706237793,-4.747360229492188,-3.450166702270508,-0.9187413454055786,5.081177234649658,3,1
20.55913352966309,15.15135383605957,-4.479364395141602,-3.389080286026001,-0.9480628371238708,4.998099327087402,3,1
20.09013938903809,15.15135383605957,-4.134798049926758,-3.153286457061768,-1.1068878173828125,4.735427379608154,3,1
19.171295166015625,14.969497680664062,-4.144368648529053,-3.106860637664795,-1.138652801513672,4.649906158447266,3,1
18.319448471069336,14.940784454345703,-3.9529430866241455,-2.891835927963257,-1.2583823204040527,4.377460479736328,3,1
17.84088706970215,14.998211860656738,-3.6370906829833984,-2.833192825317383,-1.2950342893600464,4.2223005294799805,3,1
17.601604461669922,14.969497680664062,-3.503092288970948,-2.676811456680298,-1.3573424816131592,4.145331382751465,3,1
17.276180267333984,15.113067626953123,-3.225525140762329,-2.5949556827545166,-1.3829989433288574,4.072027683258057,3,1
16.807188034057617,15.132210731506348,-2.909672260284424,-2.328618049621582,-1.4856243133544922,3.8679988384246826,3,1
16.960329055786133,15.18006706237793,-2.785245418548584,-2.258979797363281,-1.5027284622192385,3.819129467010498,3,1
16.807188034057617,15.256637573242188,-2.794816970825196,-2.090380907058716,-1.5687018632888794,3.637091636657715,3,1
16.692331314086914,15.17049503326416,-2.603391170501709,-2.0781636238098145,-1.5796974897384644,3.590665817260742,3,1
16.232908248901367,15.113067626953123,-2.565105676651001,-2.12092399597168,-1.6224579811096191,3.3964107036590576,3,1
15.830915451049805,14.959927558898926,-2.335394859313965,-2.1502456665039062,-1.6273449659347534,3.335324287414551,3,1
15.227923393249512,14.79721450805664,-2.172682762145996,-2.294409990310669,-1.6371188163757324,3.121521234512329,3,1
14.845070838928224,14.6727876663208,-2.1918253898620605,-2.3518309593200684,-1.6407840251922607,3.033556699752808,3,1
14.050655364990234,14.242079734802246,-2.009971141815185,-2.411695957183838,-1.6420056819915771,2.9126055240631104,3,1
13.418950080871582,14.060225486755373,-1.722832441329956,-2.4361305236816406,-1.6358970403671265,2.860070943832397,3,1
12.854244232177734,13.83051586151123,-1.6654046773910522,-2.487443208694458,-1.633453607559204,2.675589799880981,3,1
12.241681098937988,13.677373886108398,-1.6654046773910522,-2.48988676071167,-1.6310101747512815,2.6120598316192627,3,1
11.686546325683594,13.543376922607422,-1.5314065217971802,-2.4434609413146973,-1.6126842498779297,2.42391324043274,3,1
11.169695854187012,13.294523239135742,-1.5601203441619873,-2.421469688415528,-1.6175711154937744,2.378709316253662,3,1
10.901700019836426,13.036097526550291,-1.65583336353302,-2.3689353466033936,-1.5968017578125,2.183232307434082,3,1
10.75813102722168,12.959527015686035,-1.8472590446472168,-2.3640482425689697,-1.590693116188049,2.129476308822632,3,1
10.691131591796877,12.62453269958496,-1.8855443000793457,-2.355496406555176,-1.5650367736816406,1.913229823112488,3,1
10.71984577178955,12.299108505249023,-1.9142580032348635,-2.3750438690185547,-1.5552629232406616,1.7959437370300293,3,1
14.845070838928224,14.6727876663208,-2.1918253898620605,-2.3518309593200684,-1.6407840251922607,3.033556699752808,3,1
14.050655364990234,14.242079734802246,-2.009971141815185,-2.411695957183838,-1.6420056819915771,2.9126055240631104,3,1
13.418950080871582,14.060225486755373,-1.722832441329956,-2.4361305236816406,-1.6358970403671265,2.860070943832397,3,1
12.854244232177734,13.83051586151123,-1.6654046773910522,-2.487443208694458,-1.633453607559204,2.675589799880981,3,1
12.241681098937988,13.677373886108398,-1.6654046773910522,-2.48988676071167,-1.6310101747512815,2.6120598316192627,3,1
11.686546325683594,13.543376922607422,-1.5314065217971802,-2.4434609413146973,-1.6126842498779297,2.42391324043274,3,1
11.169695854187012,13.294523239135742,-1.5601203441619873,-2.421469688415528,-1.6175711154937744,2.378709316253662,3,1
10.834701538085938,12.174681663513184,-1.9908283948898315,-2.371378898620605,-1.557706356048584,1.7385224103927612,3,1
10.872984886169434,11.772687911987305,-1.9525433778762813,-2.3774876594543457,-1.563814997673035,1.6175711154937744,3,1
10.863414764404297,11.447263717651367,-2.009971141815185,-2.3848178386688232,-1.55892813205719,1.55892813205719,3,1
10.84427261352539,10.930414199829102,-1.8664017915725708,-2.367713689804077,-1.583362698554993,1.350012183189392,3,1
10.767702102661133,10.470992088317873,-1.770688772201538,-2.3603832721710205,-1.585806131362915,1.2999212741851809,3,1
10.78684425354004,10.183853149414062,-1.6462620496749878,-2.2687535285949707,-1.6371188163757324,1.108109474182129,3,1
10.75813102722168,9.92542839050293,-1.65583336353302,-2.201558351516724,-1.6701055765151978,1.027475357055664,3,1
10.63370418548584,9.724431991577148,-1.550549030303955,-2.163684606552124,-1.6994271278381348,0.9822713136672974,3,1
10.432705879211426,9.571290969848633,-1.5696916580200195,-1.9816468954086304,-1.7666223049163818,0.862541675567627,3,1
10.16471004486084,9.332008361816406,-1.4356937408447266,-1.9242254495620728,-1.794722080230713,0.7819074988365173,3,1
10.001997947692873,9.600005149841309,-1.5792630910873413,-1.765400528907776,-1.835039138793945,0.7489207983016968,3,1
9.973284721374512,9.68614673614502,-1.4356937408447266,-1.4648548364639282,-1.926669001579285,0.6841690540313721,3,1
9.85842990875244,9.98285675048828,-1.550549030303955,-1.3695597648620603,-1.946216702461243,0.6707300543785095,3,1
9.619147300720217,9.96371364593506,-1.703689694404602,-0.987158179283142,-2.018298625946045,0.6426302194595337,3,1
9.408578872680664,10.088139533996582,-1.761117458343506,-0.8087855577468872,-2.043955087661743,0.6328563690185547,3,1
9.073582649230955,10.030713081359863,-1.9908283948898315,-0.7586946487426758,-2.0512855052948,0.626747727394104,3,1
9.12143898010254,10.04985523223877,-2.076970100402832,-0.6780604124069214,-2.0696113109588623,0.5998696088790894,3,1
9.111868858337402,10.116853713989258,-2.210968255996704,-0.6878342032432556,-2.070833206176758,0.5913175940513611,3,1
9.150154113769531,10.040284156799316,-2.297109842300415,-0.8381071090698242,-2.054950714111328,0.5534439086914062,3,1
9.044870376586914,9.92542839050293,-2.3545374870300293,-0.9028588533401488,-2.0415115356445312,0.5216788649559021,3,1
8.987441062927246,9.781858444213867,-2.249253273010254,-1.0971139669418335,-2.0195205211639404,0.5106833577156067,3,1
9.044870376586914,9.743573188781738,-2.239682197570801,-1.4025466442108154,-1.995085835456848,0.4447098970413208,3,1
8.748160362243652,9.456435203552246,-2.4885356426239014,-1.538158655166626,-1.9889771938323968,0.4214970171451568,3,1
8.50887680053711,9.284152030944824,-2.2205395698547363,-1.63467538356781,-1.9853119850158687,0.3982841074466705,3,1
8.47059154510498,9.236295700073242,-2.2013967037200928,-1.93766450881958,-1.955990433692932,0.3017674386501312,3,1
8.221738815307617,8.930014610290527,-2.0865414142608643,-2.0781636238098145,-1.940108060836792,0.2419026345014572,3,1
7.992027759552002,8.61416244506836,-1.9046868085861208,-2.096489429473877,-1.9339994192123413,0.2186897546052932,3,1
7.685746669769287,8.403594017028809,-1.7802599668502808,-2.1392500400543213,-1.93766450881958,0.1160643920302391,3,1
7.513463497161865,8.365307807922363,-1.6654046773910522,-2.116037130355835,-1.936442732810974,0.0879645943641662,3,1
7.226324081420898,8.001599311828613,-1.521835207939148,-1.9608774185180664,-1.926669001579285,0.0012217304902151,3,1
7.149754524230957,7.877171993255615,-1.4356937408447266,-1.89368224143982,-1.9217820167541504,-0.0244346093386411,3,1
6.9583282470703125,7.637890338897705,-1.3782658576965332,-1.754404902458191,-1.918116807937622,-0.0623082555830478,3,1
6.786045074462891,7.561319828033447,-1.3399807214736938,-1.6627751588821411,-1.898569107055664,-0.0855211317539215,3,1
6.32662296295166,7.379465103149414,-1.2921241521835327,-1.5821410417556765,-1.8875735998153689,-0.1001818999648094,3,1
5.982056617736816,7.073184013366699,-1.2729816436767578,-1.370781660079956,-1.827708721160889,-0.1392772644758224,3,1
5.733202934265137,6.766902446746826,-1.349552035331726,-1.3194688558578491,-1.814269781112671,-0.1453859210014343,3,1
5.704489231109619,6.556334018707275,-1.244267821311951,-1.1557570695877075,-1.7311919927597046,-0.1698205471038818,3,1
5.484349250793457,6.412764549255371,-1.1772687435150146,-1.123992085456848,-1.7079792022705078,-0.1722639948129654,3,1
5.120640754699707,6.230910778045654,-1.1772687435150146,-1.0445796251296997,-1.588249683380127,-0.1649336069822311,3,1
4.919643402099609,5.96291446685791,-1.0911270380020142,-1.0396926403045654,-1.5442672967910769,-0.1539380401372909,3,1
4.7952165603637695,5.656632423400879,-0.9858429431915284,-1.0189231634140017,-1.4795156717300415,-0.1417207270860672,3,1
4.498506546020508,5.522634506225586,-1.1294121742248535,-1.0238101482391355,-1.3952162265777588,-0.1197295859456062,3,1
4.632504940032959,5.063212871551514,-1.0145567655563354,-1.0372490882873535,-1.3548990488052368,-0.107512280344963,3,1
4.431507110595703,4.96750020980835,-0.9858429431915284,-1.0958921909332275,-1.2180652618408203,-0.067195177078247,3,1
4.192224979400635,4.613362312316895,-0.8231310248374939,-1.119105100631714,-1.1728612184524536,-0.0488692186772823,3,1
3.7710886001586914,4.211367607116699,-0.7561320066452026,-1.193630576133728,-1.0152579545974731,0.0146607654169201,3,1
3.6945180892944336,3.809373617172241,-0.7082754969596863,-1.2376129627227783,-0.9175195693969728,0.0525344088673591,3,1
3.589233875274658,3.522234916687012,-0.7752745151519775,-1.244943380355835,-0.8772024512290955,0.0659734457731247,3,1
3.359523057937622,3.4743783473968506,-0.7752745151519775,-1.2864822149276731,-0.7342600226402283,0.140499010682106,3,1
3.1968109607696533,3.4743783473968506,-0.7369893789291382,-1.2950342893600464,-0.6817255616188049,0.1673770695924759,3,1
2.861815929412842,3.263810157775879,-0.6029912829399109,-1.310916781425476,-0.5693264007568359,0.2357939779758453,3,1
2.5268208980560303,3.225525140762329,-0.7082754969596863,-1.3194688558578491,-0.5143485069274902,0.2675589621067047,3,1
2.4502503871917725,3.148954629898072,-0.5072783827781677,-1.3512338399887085,-0.3543018400669098,0.4117231667041778,3,1
2.6703901290893555,3.2542388439178467,-0.7848458290100098,-1.3658946752548218,-0.3005456924438476,0.455705463886261,3,1
2.957528829574585,3.091526985168457,-0.861416220664978,-1.4318681955337524,-0.1624901592731475,0.626747727394104,3,1
3.148954629898072,2.8809585571289062,-0.8901299834251404,-1.4453071355819702,-0.1026253551244735,0.6914994716644287,3,1
3.206382274627685,3.206382274627685,-0.8231310248374939,-1.4575244188308716,0.0733038261532783,0.9065240025520324,3,1
3.0723843574523926,3.225525140762329,-0.8709874749183655,-1.4501941204071045,0.1319468915462494,0.96883225440979,3,1
4.5655059814453125,3.148954629898072,-1.2634104490280151,-1.3939944505691528,0.2651154994964599,1.1801916360855105,3,1
3.2446677684783936,2.8905298709869385,-1.253839135169983,-1.368338108062744,0.3078760802745819,1.323134183883667,3,1
2.1918253898620605,3.091526985168457,-1.0911270380020142,-1.2681562900543213,0.4178318083286285,1.4013248682022097,3,1
1.9046868085861208,3.1106693744659424,-1.1198410987854004,-1.1142181158065796,0.5729915499687195,1.655444860458374,3,1
1.7132610082626345,2.7086753845214844,-1.3399807214736938,-1.0775662660598757,0.626747727394104,1.7214182615280151,3,1
2.1343977451324463,2.785245418548584,-1.502692461013794,-0.8784241676330566,0.8051203489303589,1.9682077169418333,3,1
2.6703901290893555,3.043670415878296,-1.6271194219589231,-0.8161159753799438,0.8393288850784302,2.032959461212158,3,1
3.321237802505493,2.909672260284424,-1.5792630910873413,-0.5827654600143433,1.0115928649902344,2.252871036529541,3,1
3.9912283420562735,2.794816970825196,-1.2634104490280151,-0.4581489264965057,1.0775662660598757,2.3603832721710205,3,1
4.5655059814453125,2.919243574142456,-1.2155539989471436,-0.3029891550540924,1.137431025505066,2.494773626327514,3,1
5.522634506225586,3.2159535884857178,-1.3974084854125977,-0.2272418737411499,1.1606439352035522,2.555860042572021,3,1
6.5659050941467285,3.321237802505493,-1.4356937408447266,0.0659734457731247,1.244943380355835,2.774549722671509,3,1
6.977471351623535,3.321237802505493,-1.5409778356552124,0.140499010682106,1.2620476484298706,2.842966794967652,3,1
7.791030406951904,3.407379388809204,-1.7515461444854736,0.2492330223321914,1.2852604389190674,2.945591926574707,3,1
8.394021987915039,3.627519130706787,-2.306681156158448,0.2858849167823791,1.2889256477355957,2.9822442531585693,3,1
8.997013092041016,3.751945972442627,-2.545963287353516,0.3726277947425842,1.3255774974822998,3.0970866680145264,3,1
9.437292098999023,3.981656789779663,-2.909672260284424,0.3799581527709961,1.348790407180786,3.1337387561798096,3,1
9.91585636138916,4.278366565704346,-3.225525140762329,0.3762929737567901,1.3903292417526243,3.1923816204071045,3,1
10.279566764831545,4.469792366027832,-3.426522016525269,0.3677408695220947,1.4062117338180542,3.2180380821228027,3,1
10.356135368347168,4.441079139709473,-3.5126638412475586,0.3567453026771545,1.4330898523330688,3.241250991821289,3,1
10.78684425354004,4.479364395141602,-3.598805427551269,0.3103195428848266,1.4685200452804563,3.2620203495025635,3,1
11.284551620483398,4.852644443511963,-3.876372575759888,0.2956587970256805,1.4770721197128296,3.26935076713562,3,1
11.868400573730469,5.197210788726807,-4.192224979400635,0.2528982162475586,1.4831807613372805,3.263242244720459,3,1
12.241681098937988,5.474778175354004,-4.29750919342041,0.1844813078641891,1.5027284622192385,3.235142230987549,3,1
12.385250091552734,5.694918155670166,-4.661218643188477,0.1563815027475357,1.5137239694595337,3.221703052520752,3,1
12.480962753295898,5.8097734451293945,-4.718646049499512,0.0500909499824047,1.5234979391098022,3.156951427459717,3,1
12.547962188720703,6.001199245452881,-4.929214954376221,0.0048869219608604,1.5222761631011963,3.1312952041625977,3,1
12.595818519592283,6.049056053161621,-4.900500774383545,-0.0708603635430336,1.538158655166626,3.081204414367676,3,1
12.796815872192385,6.355337619781494,-5.024927616119385,-0.1514945775270462,1.5125023126602173,3.0030133724212646,3,1
12.940384864807127,6.422336101531982,-5.072783946990967,-0.180816113948822,1.5051718950271606,2.963918209075928,3,1
12.940384864807127,6.65204668045044,-5.235496044158936,-0.2101376354694366,1.481959104537964,2.8234190940856934,3,1
13.007383346557615,6.62333345413208,-5.149354457855225,-0.197920337319374,1.4660764932632446,2.73301100730896,3,1
13.026527404785156,6.69990348815918,-5.350350856781006,-0.0952949747443199,1.442863702774048,2.6389377117156982,3,1
12.892528533935549,6.709475040435791,-5.091926574707031,-0.0244346093386411,1.4257594347000122,2.5497515201568604,3,1
12.681961059570312,6.632904529571533,-5.044069766998291,0.0317649915814399,1.4062117338180542,2.4996607303619385,3,1
12.480962753295898,6.709475040435791,-5.024927616119385,0.2528982162475586,1.348790407180786,2.332283496856689,3,1
12.318251609802246,6.62333345413208,-5.063212871551514,0.3262020349502563,1.3377948999404907,2.272418737411499,3,1
12.136396408081056,6.5180487632751465,-4.852644443511963,0.4569271802902221,1.3084733486175537,2.184454202651977,3,1
11.91625690460205,6.345765590667725,-4.823930263519287,0.5155702233314514,1.2950342893600464,2.144136905670166,3,1
11.935399055480955,6.537191867828369,-4.833501815795898,0.7134906053543091,1.263269305229187,2.001194477081299,3,1
11.95454216003418,6.642475605010986,-4.7952165603637695,0.7672467231750488,1.2596040964126587,1.9633208513259888,3,1
11.724830627441406,6.62333345413208,-4.756931304931641,0.8979718685150146,1.2217304706573486,1.852143406867981,3,1
11.523834228515623,6.451050281524658,-4.776074409484863,0.9553932547569276,1.207069754600525,1.7702875137329102,3,1
11.17926788330078,6.393621921539307,-4.766502857208252,0.978606104850769,1.1997392177581787,1.744631052017212,3,1
11.112268447875977,6.431907176971436,-4.728217601776123,1.0091493129730225,1.1838568449020386,1.643227458000183,3,1
10.949556350708008,6.259624004364014,-4.804787635803223,1.025031805038452,1.175304651260376,1.5870277881622314,3,1
10.892128944396973,6.374479293823242,-4.689932346343994,1.0323623418807983,1.1691960096359253,1.5528194904327393,3,1
10.901700019836426,6.307480335235596,-4.622933387756348,1.0421360731124878,1.1447614431381226,1.4330898523330688,3,1
10.671989440917969,6.16391134262085,-4.603790760040283,1.0494663715362549,1.127657175064087,1.3988813161849976,3,1
10.547562599182127,6.135197639465332,-4.536791324615479,1.0189231634140017,1.1068878173828125,1.2803735733032229,3,1
10.413564682006836,6.183053970336914,-4.469792366027832,1.0128145217895508,1.0922271013259888,1.2461650371551514,3,1
10.269994735717772,5.953342914581299,-4.4027934074401855,0.9712756872177124,1.0739011764526367,1.1472049951553345,3,1
10.279566764831545,5.905486106872559,-4.326223850250244,0.9395107626914978,1.0580185651779177,1.1215485334396362,3,1
10.250852584838867,5.924628734588623,-4.316651821136475,0.8857545852661133,1.0409142971038818,1.0800098180770874,3,1
10.193425178527832,5.867201328277588,-4.383650779724121,0.8417722582817078,1.0323623418807983,1.056796908378601,3,1
10.068997383117676,5.675775527954102,-4.086941242218018,0.6817255616188049,1.0115928649902344,0.987158179283142,3,1
9.762717247009276,5.733202934265137,-4.201797008514404,0.6377432942390442,1.0213667154312134,0.96883225440979,3,1
9.68614673614502,5.781059741973877,-4.326223850250244,0.4838052690029144,0.9908234477043152,0.9065240025520324,3,1
9.619147300720217,5.675775527954102,-4.220939636230469,0.4593706727027893,0.9822713136672974,0.8845328092575073,3,1
9.552148818969728,5.465207099914551,-4.106083869934082,0.3860668241977691,0.9187413454055786,0.8197811245918274,3,1
9.609575271606444,5.589633941650391,-4.134798049926758,0.3665191233158111,0.911410927772522,0.7965682148933411,3,1
9.657432556152344,5.627918720245361,-3.9529430866241455,0.3555235564708709,0.836885392665863,0.720820963382721,3,1
9.552148818969728,5.446064472198486,-4.058227062225342,0.3628539443016052,0.8197811245918274,0.6976081132888794,3,1
9.533005714416504,5.493920803070068,-3.943371772766113,0.3677408695220947,0.8051203489303589,0.6805038452148438,3,1
9.446864128112791,5.417350769042969,-3.885944128036499,0.3982841074466705,0.76846843957901,0.6352998614311218,3,1
9.466007232666016,5.426921844482422,-3.838087558746338,0.4153883755207062,0.7452555894851685,0.6120869517326355,3,1
9.418149948120115,5.45563554763794,-3.675375461578369,0.4874704480171203,0.6878342032432556,0.5473352670669556,3,1
9.293723106384276,5.350350856781006,-3.684947013854981,0.5021312236785889,0.6743952035903931,0.5302309989929199,3,1
9.178868293762209,5.254638671875,-3.426522016525269,0.5632177591323853,0.6291911602020264,0.4667010605335235,3,1
9.10229778289795,5.178067684173584,-3.4169507026672363,0.5766568183898926,0.6120869517326355,0.4447098970413208,3,1
8.997013092041016,5.197210788726807,-3.273381233215332,0.6194173693656921,0.5656611919403076,0.3860668241977691,3,1
8.882158279418945,5.254638671875,-3.1585261821746826,0.626747727394104,0.5473352670669556,0.3628539443016052,3,1
8.872587203979492,5.1876397132873535,-3.139383316040039,0.6316346526145935,0.5375614166259766,0.3481931686401367,3,1
8.901299476623535,5.130211353302002,-3.0628130435943604,0.6157521605491638,0.5167919993400574,0.3188716471195221,3,1
8.82473087310791,5.158926010131836,-3.1106693744659424,0.5778785347938538,0.5045746564865112,0.3029891550540924,3,1
8.920443534851074,5.0536417961120605,-3.014956474304199,0.5461135506629944,0.5082398653030396,0.2907718420028686,3,1
8.939584732055664,5.111069202423096,-2.8809585571289062,0.4386012256145477,0.4899139106273651,0.261450320482254,3,1
9.207581520080566,4.890929222106934,-2.8809585571289062,0.4080579876899719,0.485027015209198,0.2577851116657257,3,1
9.322437286376951,4.919643402099609,-2.766103029251098,0.261450320482254,0.4740314185619354,0.2272418737411499,3,1
9.533005714416504,4.871786594390869,-2.7182462215423584,0.2309070527553558,0.4728097021579742,0.228463590145111,3,1
9.523433685302734,4.84307336807251,-2.5746772289276123,0.1368338167667389,0.4630358517169952,0.2125810980796814,3,1
9.657432556152344,4.84307336807251,-2.584248304367065,0.0598647929728031,0.4569271802902221,0.1966986060142517,3,1
9.638290405273438,4.833501815795898,-2.4598217010498047,0.0232128798961639,0.4581489264965057,0.188146486878395,3,1
9.68614673614502,4.756931304931641,-2.402393817901612,-0.0109955742955207,0.4532620012760162,0.1783726513385772,3,1
9.80100154876709,4.6995038986206055,-2.402393817901612,-0.1014036238193512,0.432492583990097,0.1514945775270462,3,1
9.877572059631348,4.642076015472412,-2.297109842300415,-0.1160643920302391,0.4263839423656463,0.1343903541564941,3,1
9.877572059631348,4.536791324615479,-2.038684844970703,-0.1466076523065567,0.4019493162631988,0.0940732434391975,3,1
10.040284156799316,4.555934429168701,-2.048256158828736,-0.1453859210014343,0.3848450779914856,0.0781907513737678,3,1
10.423135757446287,4.622933387756348,-1.9812570810317995,-0.1001818999648094,0.3555235564708709,0.0219911485910415,3,1
10.480562210083008,4.479364395141602,-1.8376877307891848,-0.0879645943641662,0.3445279896259308,0.00733038270846,3,1
10.700701713562012,4.555934429168701,-1.8472590446472168,0.0048869219608604,0.3078760802745819,-0.0635299831628799,3,1
10.767702102661133,4.622933387756348,-1.761117458343506,0.0623082555830478,0.3103195428848266,-0.1136209368705749,3,1
10.78684425354004,4.555934429168701,-1.7324036359786987,0.1050688177347183,0.2895500957965851,-0.1478293985128402,3,1
10.99741268157959,4.460221767425537,-1.761117458343506,0.1759291887283325,0.2712241411209106,-0.1954768747091293,3,1
10.901700019836426,4.498506546020508,-1.7515461444854736,0.2015855312347412,0.2700024545192718,-0.228463590145111,3,1
10.872984886169434,4.393222808837891,-1.722832441329956,0.2773328125476837,0.2565633952617645,-0.3249803185462951,3,1
10.872984886169434,4.498506546020508,-1.6175481081008911,0.2956587970256805,0.2492330223321914,-0.3591887652873993,3,1
10.738987922668455,4.5655059814453125,-1.636690616607666,0.3286454975605011,0.2296853363513946,-0.4899139106273651,3,1
10.987841606140137,4.364508152008057,-1.65583336353302,0.3384193480014801,0.2235766798257827,-0.5277875661849976,3,1
10.872984886169434,4.316651821136475,-1.502692461013794,0.3445279896259308,0.2064724415540695,-0.5729915499687195,3,1
10.74855899810791,4.30708122253418,-1.4261223077774048,0.361632227897644,0.1893682181835174,-0.6524040699005127,3,1
2.699104070663452,1.4931213855743408,-10.375279426574709,0.2333505302667617,-0.5412266254425049,0.5473352670669556,4,1
2.4598217010498047,1.4835500717163086,-10.269994735717772,0.2113593816757202,-0.5473352670669556,0.5644394755363464,4,1
2.6321046352386475,1.3304094076156616,-10.135995864868164,0.1551597714424133,-0.5583308339118958,0.6157521605491638,4,1
2.4502503871917725,1.4069796800613403,-10.030713081359863,0.1368338167667389,-0.5656611919403076,0.62796950340271,4,1
2.44067931175232,1.464407444000244,-9.96371364593506,0.0794124826788902,-0.5632177591323853,0.6743952035903931,4,1
2.5746772289276123,1.5409778356552124,-10.02114200592041,0.0659734457731247,-0.5681046843528748,0.6939429044723511,4,1
2.3258235454559326,1.4739787578582764,-9.762717247009276,0.0195476878434419,-0.5900958180427551,0.7476990222930908,4,1
2.622533798217773,1.2921241521835327,-9.83928680419922,0.0085521135479211,-0.5913175940513611,0.7660250067710876,4,1
2.555534601211548,1.4165509939193726,-9.628718376159668,-0.0109955742955207,-0.616973876953125,0.8197811245918274,4,1
2.545963287353516,1.3591231107711792,-9.533005714416504,-0.0122173046693205,-0.6291911602020264,0.8344419002532959,4,1
2.383251428604126,1.3591231107711792,-9.504291534423828,-0.0158824957907199,-0.6658430695533752,0.8881980776786804,4,1
2.517249345779419,1.349552035331726,-9.38943576812744,-0.00733038270846,-0.6756169199943542,0.9077457189559937,4,1
2.4981069564819336,1.368694543838501,-9.284152030944824,-0.00366519135423,-0.6878342032432556,0.9346237778663636,4,1
2.421536684036255,1.2634104490280151,-9.255437850952148,0.0024434609804302,-0.7037167549133301,0.940732479095459,4,1
2.344966173171997,1.3974084854125977,-9.159724235534668,-0.0146607654169201,-0.7367035150527954,0.9993755221366882,4,1
2.297109842300415,1.3878371715545654,-8.901299476623535,-0.00366519135423,-0.750142514705658,1.007927656173706,4,1
2.124826431274414,1.5409778356552124,-8.61416244506836,-0.00733038270846,-0.7855727076530457,1.065348982810974,4,1
1.8855443000793457,1.4739787578582764,-8.432307243347168,-0.0244346093386411,-0.7867944240570068,1.0836749076843262,4,1
1.9046868085861208,1.5314065217971802,-8.451449394226074,-0.0696386322379112,-0.8258897662162781,1.145983099937439,4,1
1.7324036359786987,1.5792630910873413,-8.126026153564453,-0.1001818999648094,-0.8417722582817078,1.1838568449020386,4,1
1.7132610082626345,1.7515461444854736,-7.94417142868042,-0.107512280344963,-0.8527678847312927,1.2302825450897217,4,1
1.6079767942428589,1.9238293170928955,-7.542177200317383,-0.140499010682106,-0.8747590184211731,1.2547171115875244,4,1
1.454836130142212,1.8664017915725708,-7.417750358581543,-0.2235766798257827,-0.8894197940826416,1.3536773920059204,4,1
1.4739787578582764,2.0961124897003174,-7.121039867401123,-0.251676470041275,-0.8869763016700745,1.3671163320541382,4,1
1.368694543838501,2.172682762145996,-6.929614543914795,-0.3824016451835632,-0.901637077331543,1.4538592100143433,4,1
1.4356937408447266,2.163111925125122,-6.594619274139404,-0.4386012256145477,-0.9089674949645996,1.490511178970337,4,1
1.6175481081008911,2.230110883712769,-6.144768714904785,-0.4813618063926697,-0.9089674949645996,1.5222761631011963,4,1
1.4356937408447266,2.392822742462158,-5.800202369689941,-0.6756169199943542,-0.9248499870300292,1.615127682685852,4,1
1.550549030303955,2.469393014907837,-5.417350769042969,-0.7330382466316223,-0.9236282110214232,1.644449234008789,4,1
1.5122640132904053,2.4598217010498047,-4.996213912963867,-0.9419541358947754,-0.9419541358947754,1.7324137687683103,4,1
1.550549030303955,2.584248304367065,-4.59421968460083,-1.0018190145492554,-0.9431759119033812,1.792278528213501,4,1
1.674975872039795,2.68953275680542,-4.230510234832764,-1.1728612184524536,-0.9468411207199096,1.8313740491867063,4,1
1.6462620496749878,2.6608188152313232,-3.847658634185791,-1.3854423761367798,-0.987158179283142,1.9315558671951287,4,1
1.5888344049453735,2.8139593601226807,-3.617948055267334,-1.4685200452804563,-0.988379955291748,1.9682077169418333,4,1
1.8281164169311523,2.9862427711486816,-3.177668809890747,-1.5210543870925903,-0.996932089328766,2.0024163722991943,4,1
1.9716858863830569,2.909672260284424,-2.699104070663452,-1.7189747095108032,-1.038470983505249,2.1087067127227783,4,1
2.47896409034729,3.081955671310425,-2.3736801147460938,-1.7580702304840088,-1.0494663715362549,2.135585069656372,4,1
2.9862427711486816,3.129812002182007,-1.895115613937378,-1.9230037927627563,-1.10444438457489,2.252871036529541,4,1
3.790231227874756,3.369094133377075,-1.5888344049453735,-1.9523253440856927,-1.1288789510726929,2.272418737411499,4,1
4.5655059814453125,3.369094133377075,-1.2825528383255005,-2.083050489425659,-1.2107348442077637,2.3909265995025635,4,1
5.436492443084717,3.493520975112915,-0.8039883971214294,-2.1319196224212646,-1.222952127456665,2.47400426864624,4,1
6.498906135559082,3.579662799835205,-0.057427741587162,-2.246762275695801,-1.301142930984497,2.5106561183929443,4,1
7.044469833374023,3.7232320308685294,0.277567446231842,-2.437352180480957,-1.4049899578094482,2.615724802017212,4,1
8.039884567260742,4.077369689941406,0.5168497562408447,-2.4837779998779297,-1.441641926765442,2.6535985469818115,4,1
8.642874717712402,4.354937553405762,1.4165509939193726,-2.6254987716674805,-1.585806131362915,2.806314945220948,4,1
9.418149948120115,4.527220726013184,2.1439692974090576,-2.654820203781128,-1.6273449659347534,2.8368582725524902,4,1
10.413564682006836,4.776074409484863,2.833101987838745,-2.676811456680298,-1.814269781112671,2.9993484020233154,4,1
11.609975814819336,5.216352939605713,3.6370906829833984,-2.65726375579834,-1.850921630859375,3.0506608486175537,4,1
12.854244232177734,5.522634506225586,4.201797008514404,-2.552194833755493,-1.9840903282165527,3.22536849975586,4,1
13.48594856262207,5.599205017089844,5.015356540679932,-2.51187801361084,-2.0195205211639404,3.271794080734253,4,1
13.744373321533203,5.943771362304688,6.106483459472656,-2.367713689804077,-2.085493803024292,3.4611623287200928,4,1
14.634504318237305,6.068198204040527,6.594619274139404,-2.241875410079956,-2.090380907058716,3.567452907562256,4,1
16.051054000854492,6.62333345413208,6.766902446746826,-2.079385280609131,-2.0586156845092773,3.67985200881958,4,1
17.429319381713867,5.8959150314331055,7.140182495117188,-2.006081342697144,-2.021963834762573,3.740938663482666,4,1
18.40559196472168,5.819344520568848,7.896315097808838,-1.8387043476104736,-1.832595705986023,3.898541927337648,4,1
20.32942008972168,5.608777046203613,8.61416244506836,-1.8460347652435305,-1.7763961553573608,3.916867971420288,4,1
21.94696807861328,5.656632423400879,9.3128662109375,-2.02929425239563,-1.510058879852295,3.899763584136963,4,1
24.36850547790528,5.685346603393555,9.944571495056152,-2.10504150390625,-1.4245377779006958,3.876550674438477,4,1
25.201208114624023,5.436492443084717,10.29870891571045,-2.331061840057373,-1.145983099937439,3.7653732299804688,4,1
26.033910751342773,5.45563554763794,11.705689430236816,-2.3970351219177246,-1.017701506614685,3.7165040969848633,4,1
26.80918502807617,5.714060783386231,12.471391677856444,-2.46178674697876,-0.6194173693656921,3.539353370666504,4,1
28.02473831176757,5.8959150314331055,12.748958587646484,-2.367713689804077,-0.4569271802902221,3.486818790435791,4,1
28.828725814819336,6.020341873168945,13.093524932861328,-2.2479841709136963,-0.2858849167823791,3.4489450454711914,4,1
30.800413131713867,6.259624004364014,13.744373321533203,-2.1111502647399902,-0.1295034289360046,3.412293195724488,4,1
33.12623977661133,6.259624004364014,13.945369720458984,-1.3145819902420044,0.485027015209198,3.3573155403137207,4,1
36.22733688354492,6.891329765319824,14.07936954498291,-1.027475357055664,0.6609562039375305,3.346319913864136,4,1
39.2710075378418,7.762316703796387,14.43350601196289,0.2260201424360275,1.4355332851409912,3.375641345977783,4,1
43.884368896484375,8.317451477050781,14.577075004577637,0.5558874011039734,1.643227458000183,3.38297176361084,4,1
47.55974578857422,8.690731048583984,14.203795433044434,1.4648548364639282,2.5253169536590576,3.313333034515381,4,1
51.80939483642578,9.628718376159668,13.667802810668944,1.5760324001312256,2.772106409072876,3.265685558319092,4,1
55.33163070678711,10.557132720947266,13.131810188293455,1.5418238639831543,3.813020706176758,2.995683193206787,4,1
57.02575302124024,11.026126861572266,12.921241760253906,1.4172073602676392,4.235739707946777,2.8906142711639404,4,1
59.30371475219727,11.686546325683594,12.557533264160156,1.1606439352035522,4.972443103790283,2.7036893367767334,4,1
62.22296142578125,12.62453269958496,11.810972213745115,1.0421360731124878,5.329188346862793,2.61939024925232,4,1
65.37191772460938,13.227523803710938,11.150553703308104,0.7257078886032104,6.908885955810547,2.2883012294769287,4,1
72.33981323242188,14.261222839355469,10.068997383117676,0.7098253965377808,7.373143672943115,2.216218948364258,4,1
75.80461883544922,14.404791831970217,9.96371364593506,0.8307767510414124,8.614421844482422,2.037846326828003,4,1
81.5378189086914,15.266207695007324,9.18843936920166,1.0580185651779177,9.387777328491213,1.938886284828186,4,1
86.87860870361328,16.232908248901367,8.566306114196777,1.3561208248138428,10.08049774169922,1.869247555732727,4,1
90.86983489990234,16.922040939331055,7.838886737823486,1.5992451906204224,10.575299263000488,1.821600079536438,4,1
99.34999084472656,17.582460403442383,5.45563554763794,2.032959461212158,11.55634880065918,1.693318486213684,4,1
111.49596405029295,17.333606719970703,3.407379388809204,2.400700330734253,12.652239799499512,1.442863702774048,4,1
122.58909606933594,16.79761505126953,0.5742774605751038,2.4825563430786133,13.165367126464844,1.282817006111145,4,1
132.20823669433594,16.68276023864746,-2.2779672145843506,2.761110782623291,15.131132125854492,0.4166100621223449,4,1
144.0096435546875,16.309478759765625,-5.9916276931762695,2.9297096729278564,15.66502857208252,0.1453859210014343,4,1
155.24632263183594,14.845070838928224,-8.834301948547363,4.245512962341309,17.724864959716797,-1.1630873680114746,4,1
165.21961975097656,13.514662742614746,-10.65284538269043,4.745201110839844,18.183013916015625,-1.5723670721054075,4,1
176.59986877441406,11.839686393737791,-14.050655364990234,5.964488506317139,18.91116523742676,-2.4813344478607178,4,1
181.75881958007807,11.217554092407228,-16.472190856933594,7.195992469787598,19.56967735290528,-3.4012975692749023,4,1
190.21026611328125,9.9350004196167,-18.56830406188965,8.064642906188965,19.930089950561523,-4.310265064239502,4,1
201.80108642578125,8.011170387268066,-22.72224235534668,8.50813102722168,20.064477920532227,-5.797111034393311,4,1
157.1797332763672,118.77014923095705,-17.898311614990234,-17.22640037536621,15.002850532531738,-6.6291093826293945,4,1
94.73663330078124,38.103309631347656,9.638290405273438,-26.06806182861328,12.393233299255373,-4.056145191192627,4,1
106.77731323242188,4.230510234832764,78.64729309082031,-16.16105079650879,16.67051124572754,-3.147177696228028,4,1
87.1944580078125,12.605389595031738,-5.178067684173584,4.0463714599609375,12.880703926086426,-0.9993755221366882,4,1
104.36534881591795,18.49173355102539,57.42774200439453,8.641300201416016,12.93568229675293,-1.0396926403045654,4,1
114.54920959472656,12.681961059570312,-4.67078971862793,18.946596145629883,13.055412292480469,-3.70795202255249,4,1
109.07443237304688,13.39980697631836,-44.1715087890625,19.8812198638916,13.1348237991333,-4.681671619415283,4,1
106.1168975830078,2.8905298709869385,-40.43870162963867,16.007112503051758,13.008986473083496,-8.62541675567627,4,1
105.55219268798828,4.220939636230469,-30.072996139526367,14.115874290466309,13.553877830505373,-9.514837265014648,4,1
