ax,ay,az,gx,gy,gz,recording,source_folder
0.7847399711608887,0.3827999830245971,-9.751830101013184,0.3149999976158142,-0.0437499992549419,-0.2275000065565109,1,1
0.8325899839401245,0.37322998046875,-9.742259979248049,0.332500010728836,-0.0087500000372529,-0.1400000005960464,1,1
0.861299991607666,0.3445200026035309,-9.73268985748291,0.3237499892711639,-0.0087500000372529,-0.21875,1,1
0.8517299890518188,0.37322998046875,-9.73268985748291,0.3149999976158142,-0.0437499992549419,-0.166250005364418,1,1
0.8517299890518188,0.3827999830245971,-9.751830101013184,0.332500010728836,-0.0350000001490116,-0.166250005364418,1,1
0.8230199813842773,0.37322998046875,-9.751830101013184,0.3762499988079071,-0.1312499940395355,-0.2012500017881393,1,1
0.8421599864959717,0.3827999830245971,-9.723119735717772,0.3062500059604645,0.0525000020861625,-0.1837500035762787,1,1
0.8421599864959717,0.3636599779129028,-9.751830101013184,0.3062500059604645,-0.0525000020861625,-0.166250005364418,1,1
0.8517299890518188,0.37322998046875,-9.723119735717772,0.2887499928474426,-0.0700000002980232,-0.1749999970197677,1,1
0.8421599864959717,0.3923699855804443,-9.751830101013184,0.3149999976158142,-0.0087500000372529,-0.1050000041723251,1,1
0.861299991607666,0.37322998046875,-9.723119735717772,0.332500010728836,-0.0437499992549419,-0.1574999988079071,1,1
0.8421599864959717,0.3636599779129028,-9.713549613952637,0.3062500059604645,-0.0612500011920928,-0.1837500035762787,1,1
0.8325899839401245,0.3636599779129028,-9.742259979248049,0.332500010728836,-0.0350000001490116,-0.1487500071525573,1,1
0.8325899839401245,0.3636599779129028,-9.77096939086914,0.3675000071525574,-0.0262500010430812,-0.1837500035762787,1,1
0.7943099737167358,0.3923699855804443,-9.684840202331545,0.3587500154972076,0.0874999985098838,-0.166250005364418,1,1
0.8134499788284302,0.3636599779129028,-9.742259979248049,0.3937500119209289,0.0525000020861625,-0.0962499976158142,1,1
0.8708699941635132,0.3636599779129028,-9.694409370422363,0.3062500059604645,-0.0262500010430812,-0.1749999970197677,1,1
0.8325899839401245,0.3445200026035309,-9.73268985748291,0.3062500059604645,-0.0787499994039535,-0.1574999988079071,1,1
0.8325899839401245,0.4115099906921386,-9.751830101013184,0.262499988079071,-0.0175000000745058,-0.1487500071525573,1,1
0.7943099737167358,0.3636599779129028,-9.742259979248049,0.3149999976158142,-0.0087500000372529,-0.166250005364418,1,1
0.8421599864959717,0.354090005159378,-9.751830101013184,0.3587500154972076,-0.1312499940395355,-0.166250005364418,1,1
0.8708699941635132,0.3445200026035309,-9.751830101013184,0.3499999940395355,-0.0175000000745058,-0.2100000083446502,1,1
0.8325899839401245,0.3827999830245971,-9.742259979248049,0.2975000143051147,-0.0087500000372529,-0.1487500071525573,1,1
0.8134499788284302,0.354090005159378,-9.694409370422363,0.3237499892711639,-0.0350000001490116,-0.166250005364418,1,1
0.8230199813842773,0.3253799974918365,-9.751830101013184,0.3587500154972076,-0.0175000000745058,-0.2012500017881393,1,1
0.8804399967193604,0.3445200026035309,-9.7039794921875,0.2975000143051147,-0.0437499992549419,-0.1749999970197677,1,1
0.8421599864959717,0.3827999830245971,-9.742259979248049,0.3412500023841858,0.0,-0.1400000005960464,1,1
0.8517299890518188,0.37322998046875,-9.742259979248049,0.332500010728836,-0.0350000001490116,-0.1225000023841857,1,1
0.8325899839401245,0.3923699855804443,-9.723119735717772,0.2975000143051147,0.0262500010430812,-0.1487500071525573,1,1
0.8325899839401245,0.3253799974918365,-9.76140022277832,0.2800000011920929,-0.0087500000372529,-0.1312499940395355,1,1
0.8708699941635132,0.3827999830245971,-9.76140022277832,0.2800000011920929,-0.0350000001490116,-0.1225000023841857,1,1
0.8230199813842773,0.354090005159378,-9.713549613952637,0.3237499892711639,-0.0262500010430812,-0.1487500071525573,1,1
0.861299991607666,0.3349500000476837,-9.723119735717772,0.3499999940395355,-0.0087500000372529,-0.1574999988079071,1,1
0.8325899839401245,0.3445200026035309,-9.780539512634276,0.2887499928474426,-0.0087500000372529,-0.1574999988079071,1,1
0.8421599864959717,0.4497900009155273,-9.751830101013184,0.2800000011920929,-0.0437499992549419,-0.1574999988079071,1,1
0.8517299890518188,0.3923699855804443,-9.684840202331545,0.3062500059604645,-0.0437499992549419,-0.1050000041723251,1,1
0.8517299890518188,0.3923699855804443,-9.723119735717772,0.3149999976158142,-0.0962499976158142,-0.1137500032782554,1,1
0.861299991607666,0.3827999830245971,-9.77096939086914,0.3149999976158142,-0.0350000001490116,-0.1312499940395355,1,1
0.803879976272583,0.354090005159378,-9.73268985748291,0.3062500059604645,-0.0175000000745058,-0.166250005364418,1,1
0.8230199813842773,0.37322998046875,-9.73268985748291,0.2887499928474426,-0.0087500000372529,-0.166250005364418,1,1
0.861299991607666,0.354090005159378,-9.76140022277832,0.3849999904632568,0.0262500010430812,-0.166250005364418,1,1
0.8230199813842773,0.3349500000476837,-9.675270080566406,0.2975000143051147,-0.0350000001490116,-0.1400000005960464,1,1
0.8995800018310547,0.3827999830245971,-9.751830101013184,0.3062500059604645,0.0,-0.166250005364418,1,1
0.8708699941635132,0.4019399881362915,-9.694409370422363,0.4025000035762787,-0.0350000001490116,-0.1312499940395355,1,1
0.8517299890518188,0.3636599779129028,-9.73268985748291,0.3412500023841858,-0.0612500011920928,-0.2275000065565109,1,1
0.8421599864959717,0.37322998046875,-9.723119735717772,0.3237499892711639,-0.0175000000745058,-0.2100000083446502,1,1
0.8421599864959717,0.4115099906921386,-9.73268985748291,0.3237499892711639,-0.0350000001490116,-0.2100000083446502,1,1
0.8325899839401245,0.3827999830245971,-9.675270080566406,0.3062500059604645,-0.0437499992549419,-0.1400000005960464,1,1
0.8708699941635132,0.3636599779129028,-9.76140022277832,0.3149999976158142,0.0175000000745058,-0.1574999988079071,1,1
0.8708699941635132,0.3636599779129028,-9.723119735717772,0.2887499928474426,-0.0262500010430812,-0.21875,1,1
0.8325899839401245,0.354090005159378,-9.76140022277832,0.332500010728836,-0.0612500011920928,-0.166250005364418,1,1
0.8325899839401245,0.3827999830245971,-9.73268985748291,0.3062500059604645,-0.0437499992549419,-0.1137500032782554,1,1
0.8230199813842773,0.354090005159378,-9.76140022277832,0.3062500059604645,0.0874999985098838,-0.1312499940395355,1,1
0.8421599864959717,0.3636599779129028,-9.77096939086914,0.3237499892711639,-0.0700000002980232,-0.166250005364418,1,1
0.8421599864959717,0.3636599779129028,-9.742259979248049,0.332500010728836,-0.0787499994039535,-0.1924999952316284,1,1
0.8421599864959717,0.3349500000476837,-9.694409370422363,0.3499999940395355,-0.0612500011920928,-0.1487500071525573,1,1
0.8134499788284302,0.3636599779129028,-9.73268985748291,0.3149999976158142,-0.0437499992549419,-0.1400000005960464,1,1
0.8325899839401245,0.3349500000476837,-9.742259979248049,0.3237499892711639,0.0175000000745058,-0.1749999970197677,1,1
0.8517299890518188,0.3827999830245971,-9.73268985748291,0.3412500023841858,-0.0175000000745058,-0.1837500035762787,1,1
0.861299991607666,0.3636599779129028,-9.723119735717772,0.3675000071525574,-0.0525000020861625,-0.166250005364418,1,1
0.8325899839401245,0.3349500000476837,-9.742259979248049,0.3412500023841858,-0.0874999985098838,-0.0962499976158142,1,1
0.861299991607666,0.4019399881362915,-9.713549613952637,0.332500010728836,-0.0525000020861625,-0.1225000023841857,1,1
0.8325899839401245,0.3827999830245971,-9.77096939086914,0.332500010728836,-0.0350000001490116,-0.1312499940395355,1,1
0.8421599864959717,0.4019399881362915,-9.7039794921875,0.3062500059604645,-0.0525000020861625,-0.1487500071525573,1,1
0.8421599864959717,0.3636599779129028,-9.694409370422363,0.3062500059604645,-0.0350000001490116,-0.1837500035762787,1,1
0.8134499788284302,0.3445200026035309,-9.723119735717772,0.3499999940395355,-0.0350000001490116,-0.1574999988079071,1,1
0.8517299890518188,0.3827999830245971,-9.723119735717772,0.3062500059604645,-0.0700000002980232,-0.2275000065565109,1,1
0.8517299890518188,0.3445200026035309,-9.76140022277832,0.3062500059604645,0.0087500000372529,-0.1574999988079071,1,1
0.8230199813842773,0.3253799974918365,-9.73268985748291,0.3149999976158142,2.2049999237060547,-0.1137500032782554,1,1
0.803879976272583,0.37322998046875,-9.751830101013184,0.2975000143051147,0.0962499976158142,-0.21875,1,1
0.861299991607666,0.3636599779129028,-9.73268985748291,0.3237499892711639,-0.0175000000745058,-0.1487500071525573,1,1
0.8421599864959717,0.3349500000476837,-9.73268985748291,0.3762499988079071,-0.0350000001490116,-0.2100000083446502,1,1
0.8517299890518188,0.3827999830245971,-9.742259979248049,0.3499999940395355,-0.0262500010430812,-0.166250005364418,1,1
0.7751699686050415,0.3349500000476837,-9.742259979248049,0.3237499892711639,-0.0262500010430812,-0.1574999988079071,1,1
0.8325899839401245,0.3349500000476837,-9.723119735717772,0.3062500059604645,0.0087500000372529,-0.1487500071525573,1,1
0.8134499788284302,0.354090005159378,-9.7039794921875,0.2887499928474426,-0.0612500011920928,-0.1574999988079071,1,1
0.8230199813842773,0.3923699855804443,-9.742259979248049,0.3062500059604645,0.0350000001490116,-0.2100000083446502,1,1
0.8325899839401245,0.3636599779129028,-9.73268985748291,0.332500010728836,-0.0874999985098838,-0.1400000005960464,1,1
0.8325899839401245,0.3923699855804443,-9.723119735717772,0.3762499988079071,-0.0874999985098838,-0.1312499940395355,1,1
0.8134499788284302,0.3827999830245971,-9.713549613952637,0.3237499892711639,-0.0175000000745058,-0.166250005364418,1,1
0.8325899839401245,0.37322998046875,-9.713549613952637,0.3412500023841858,-0.0350000001490116,-0.1312499940395355,1,1
0.8517299890518188,0.37322998046875,-9.73268985748291,0.2800000011920929,-0.0525000020861625,-0.1574999988079071,1,1
0.8134499788284302,0.3636599779129028,-9.73268985748291,0.3762499988079071,-0.0262500010430812,-0.1137500032782554,1,1
0.8517299890518188,0.3827999830245971,-9.73268985748291,0.3937500119209289,-0.0262500010430812,-0.1050000041723251,1,1
0.8421599864959717,0.3923699855804443,-9.76140022277832,0.3237499892711639,-0.0350000001490116,-0.1487500071525573,1,1
0.8421599864959717,0.3827999830245971,-9.742259979248049,0.3062500059604645,-0.0087500000372529,-0.1312499940395355,1,1
0.861299991607666,0.3636599779129028,-9.742259979248049,0.332500010728836,-0.0437499992549419,-0.1749999970197677,1,1
0.8325899839401245,0.4402199983596802,-9.73268985748291,0.3412500023841858,0.0262500010430812,-0.2100000083446502,1,1
0.8421599864959717,0.3349500000476837,-9.73268985748291,0.3149999976158142,-0.0087500000372529,-0.1312499940395355,1,1
0.8421599864959717,0.3636599779129028,-9.723119735717772,0.2975000143051147,-0.0087500000372529,-0.1225000023841857,1,1
0.861299991607666,0.3636599779129028,-9.723119735717772,0.3149999976158142,-0.0175000000745058,-0.1837500035762787,1,1
0.8708699941635132,0.37322998046875,-9.7039794921875,0.2800000011920929,-0.0437499992549419,-0.1749999970197677,1,1
0.8517299890518188,0.3636599779129028,-9.713549613952637,0.3062500059604645,0.0262500010430812,-0.1837500035762787,1,1
0.8230199813842773,0.37322998046875,-9.694409370422363,0.3499999940395355,-0.0262500010430812,-0.1837500035762787,1,1
0.8517299890518188,0.354090005159378,-9.7039794921875,0.3675000071525574,-0.0437499992549419,-0.1137500032782554,1,1
0.8230199813842773,0.37322998046875,-9.713549613952637,0.3762499988079071,-0.0525000020861625,-0.1400000005960464,1,1
0.8230199813842773,0.3349500000476837,-9.713549613952637,0.3412500023841858,-0.0087500000372529,-0.1225000023841857,1,1
0.8325899839401245,0.354090005159378,-9.7039794921875,0.332500010728836,-0.0437499992549419,-0.1924999952316284,1,1
0.8517299890518188,0.3827999830245971,-9.742259979248049,0.332500010728836,-0.0350000001490116,-0.1924999952316284,1,1
0.8325899839401245,0.4019399881362915,-9.73268985748291,0.3587500154972076,-0.1050000041723251,-0.1574999988079071,1,1
0.861299991607666,0.3827999830245971,-9.723119735717772,0.332500010728836,-0.0437499992549419,-0.1400000005960464,1,1
0.8230199813842773,0.4115099906921386,-9.751830101013184,0.3237499892711639,0.0087500000372529,-0.1487500071525573,1,1
0.8134499788284302,0.37322998046875,-9.723119735717772,0.3149999976158142,-0.0175000000745058,-0.1400000005960464,1,1
0.8708699941635132,0.3827999830245971,-9.723119735717772,0.3062500059604645,-0.0700000002980232,-0.1400000005960464,1,1
0.861299991607666,0.3636599779129028,-9.723119735717772,0.3762499988079071,-0.0087500000372529,-0.1749999970197677,1,1
0.8708699941635132,0.3827999830245971,-9.723119735717772,0.2975000143051147,-0.0262500010430812,-0.1312499940395355,1,1
0.8517299890518188,0.37322998046875,-9.713549613952637,0.2975000143051147,-0.0350000001490116,-0.1400000005960464,1,1
0.8134499788284302,0.37322998046875,-9.73268985748291,0.2712500095367431,0.0175000000745058,-0.166250005364418,1,1
0.8230199813842773,0.3253799974918365,-9.694409370422363,0.2800000011920929,0.0087500000372529,-0.1225000023841857,1,1
0.8325899839401245,0.3827999830245971,-9.742259979248049,0.3237499892711639,-0.0262500010430812,-0.1400000005960464,1,1
0.8421599864959717,0.37322998046875,-9.7039794921875,0.3499999940395355,-0.0350000001490116,-0.1574999988079071,1,1
0.861299991607666,0.37322998046875,-9.751830101013184,0.3499999940395355,-0.0700000002980232,-0.1837500035762787,1,1
0.8134499788284302,0.354090005159378,-9.742259979248049,0.3237499892711639,-0.0437499992549419,-0.1749999970197677,1,1
0.8230199813842773,0.37322998046875,-9.723119735717772,0.3149999976158142,-0.0087500000372529,-0.1837500035762787,1,1
0.861299991607666,0.3349500000476837,-9.723119735717772,0.3237499892711639,-0.0612500011920928,-0.1312499940395355,1,1
0.8517299890518188,0.3445200026035309,-9.7039794921875,0.2887499928474426,0.0437499992549419,-0.0700000002980232,1,1
0.8325899839401245,0.3636599779129028,-9.713549613952637,0.3499999940395355,0.0175000000745058,-0.1312499940395355,1,1
0.7751699686050415,0.354090005159378,-9.73268985748291,0.3237499892711639,-0.0087500000372529,-0.1837500035762787,1,1
0.8325899839401245,0.3349500000476837,-9.73268985748291,0.2537499964237213,-0.0175000000745058,-0.1225000023841857,1,1
0.8517299890518188,0.4019399881362915,-9.713549613952637,0.332500010728836,0.0175000000745058,-0.0962499976158142,1,1
0.8325899839401245,0.3923699855804443,-9.742259979248049,0.3237499892711639,0.0262500010430812,-0.1312499940395355,1,1
0.8325899839401245,0.4115099906921386,-9.751830101013184,0.3062500059604645,-0.0350000001490116,-0.1050000041723251,1,1
0.8517299890518188,0.37322998046875,-9.73268985748291,0.3587500154972076,-0.0350000001490116,-0.1487500071525573,1,1
0.8230199813842773,0.354090005159378,-9.723119735717772,0.262499988079071,-0.0175000000745058,-0.1400000005960464,1,1
0.803879976272583,0.3827999830245971,-9.7039794921875,0.3149999976158142,-0.0262500010430812,-0.1574999988079071,1,1
0.8517299890518188,0.4019399881362915,-9.723119735717772,0.2975000143051147,0.0,-0.1137500032782554,1,1
0.8421599864959717,0.3827999830245971,-9.7039794921875,0.3062500059604645,0.0,-0.1487500071525573,1,1
0.8517299890518188,0.4210799932479858,-9.76140022277832,0.332500010728836,-0.0437499992549419,-0.1924999952316284,1,1
0.8421599864959717,0.354090005159378,-9.73268985748291,0.3499999940395355,-0.0787499994039535,-0.1749999970197677,1,1
0.8325899839401245,0.3923699855804443,-9.713549613952637,0.3062500059604645,-0.0262500010430812,-0.1837500035762787,1,1
0.8325899839401245,0.3349500000476837,-9.723119735717772,0.3412500023841858,-0.0350000001490116,-0.1924999952316284,1,1
0.861299991607666,0.354090005159378,-9.780539512634276,0.2975000143051147,-0.0350000001490116,-0.1225000023841857,1,1
0.8804399967193604,0.3923699855804443,-9.76140022277832,0.332500010728836,-0.0787499994039535,-0.1312499940395355,1,1
0.861299991607666,0.3636599779129028,-9.73268985748291,0.3412500023841858,-0.0525000020861625,-0.1487500071525573,1,1
0.8230199813842773,0.3827999830245971,-9.694409370422363,0.3499999940395355,-0.0700000002980232,-0.1749999970197677,1,1
0.8708699941635132,0.3636599779129028,-9.73268985748291,0.2975000143051147,-0.0350000001490116,-0.166250005364418,1,1
0.861299991607666,0.3636599779129028,-9.77096939086914,0.3762499988079071,-0.0087500000372529,-0.1400000005960464,1,1
0.8134499788284302,0.37322998046875,-9.742259979248049,0.3675000071525574,0.0350000001490116,-0.1487500071525573,1,1
0.861299991607666,0.37322998046875,-9.723119735717772,0.3237499892711639,0.0350000001490116,-0.1137500032782554,1,1
0.803879976272583,0.37322998046875,-9.742259979248049,0.3062500059604645,-0.0262500010430812,-0.166250005364418,1,1
0.8517299890518188,0.354090005159378,-9.73268985748291,0.3062500059604645,-0.0262500010430812,-0.2275000065565109,1,1
0.8421599864959717,0.3445200026035309,-9.723119735717772,0.2800000011920929,-0.0700000002980232,-0.1574999988079071,1,1
0.861299991607666,0.354090005159378,-9.723119735717772,0.332500010728836,-0.0437499992549419,-0.2100000083446502,1,1
0.8230199813842773,0.37322998046875,-9.723119735717772,0.332500010728836,-0.1137500032782554,-0.1749999970197677,1,1
0.8230199813842773,0.37322998046875,-9.73268985748291,0.3587500154972076,-0.0437499992549419,-0.1312499940395355,1,1
0.8517299890518188,0.3253799974918365,-9.723119735717772,0.3237499892711639,-0.0525000020861625,-0.1749999970197677,1,1
0.8517299890518188,0.3636599779129028,-9.694409370422363,0.2887499928474426,-0.0262500010430812,-0.1400000005960464,1,1
0.8421599864959717,0.3445200026035309,-9.73268985748291,0.2887499928474426,-0.0525000020861625,-0.1225000023841857,1,1
0.861299991607666,0.3445200026035309,-9.7039794921875,0.3149999976158142,-0.0262500010430812,-0.1225000023841857,1,1
0.8421599864959717,0.3923699855804443,-9.713549613952637,0.3762499988079071,-0.0087500000372529,-0.1749999970197677,1,1
0.8421599864959717,0.37322998046875,-9.713549613952637,0.2712500095367431,-0.0700000002980232,-0.166250005364418,1,1
0.861299991607666,0.3827999830245971,-9.751830101013184,0.2712500095367431,-0.1487500071525573,0.0962499976158142,1,1
0.861299991607666,0.37322998046875,-9.76140022277832,0.3849999904632568,-0.2800000011920929,-0.1487500071525573,1,1
0.803879976272583,0.354090005159378,-9.751830101013184,0.332500010728836,-0.0612500011920928,-0.1837500035762787,1,1
0.8517299890518188,0.3636599779129028,-9.73268985748291,0.2800000011920929,-0.262499988079071,-0.1312499940395355,1,1
0.803879976272583,0.37322998046875,-9.684840202331545,0.3062500059604645,-0.3849999904632568,-0.1137500032782554,1,1
0.8517299890518188,0.3636599779129028,-9.742259979248049,0.2537499964237213,-0.2012500017881393,-0.1400000005960464,1,1
0.8804399967193604,0.37322998046875,-9.694409370422363,0.3412500023841858,0.0262500010430812,-0.1225000023841857,1,1
0.8134499788284302,0.3253799974918365,-9.66569995880127,0.3675000071525574,0.0262500010430812,-0.0612500011920928,1,1
0.8900099992752075,0.354090005159378,-9.73268985748291,0.3762499988079071,0.1837500035762787,-0.0874999985098838,1,1
0.861299991607666,0.4115099906921386,-9.742259979248049,0.2975000143051147,-0.0962499976158142,-0.1137500032782554,1,1
0.8325899839401245,0.3636599779129028,-9.73268985748291,0.2975000143051147,-0.3762499988079071,-0.1400000005960464,1,1
0.7943099737167358,0.3636599779129028,-9.723119735717772,0.2975000143051147,-0.2975000143051147,-0.0350000001490116,1,1
0.8708699941635132,0.3636599779129028,-9.751830101013184,0.3587500154972076,-0.2975000143051147,0.166250005364418,1,1
0.8134499788284302,0.354090005159378,-9.79967975616455,0.3499999940395355,-0.332500010728836,0.0,1,1
0.8325899839401245,0.3923699855804443,-9.713549613952637,0.3062500059604645,0.0175000000745058,-0.166250005364418,1,1
0.8421599864959717,0.3636599779129028,-9.742259979248049,0.3675000071525574,0.1924999952316284,-0.1574999988079071,1,1
0.861299991607666,0.3445200026035309,-9.723119735717772,0.2537499964237213,-0.0700000002980232,-0.0087500000372529,1,1
0.8134499788284302,0.3636599779129028,-9.73268985748291,0.2712500095367431,-0.1924999952316284,-0.166250005364418,1,1
0.803879976272583,0.3827999830245971,-9.73268985748291,0.3675000071525574,0.1137500032782554,-0.2712500095367431,1,1
0.8230199813842773,0.3923699855804443,-9.790109634399414,0.3762499988079071,0.2450000047683715,-0.0612500011920928,1,1
0.8804399967193604,0.3923699855804443,-9.723119735717772,0.2712500095367431,0.0087500000372529,-0.1137500032782554,1,1
0.861299991607666,0.3253799974918365,-9.742259979248049,0.3587500154972076,-0.1400000005960464,-0.2012500017881393,1,1
0.8517299890518188,0.3923699855804443,-9.723119735717772,0.262499988079071,0.2450000047683715,-0.2800000011920929,1,1
0.8995800018310547,0.354090005159378,-9.76140022277832,0.4987500011920929,0.3412500023841858,-0.1749999970197677,1,1
0.8421599864959717,0.3349500000476837,-9.742259979248049,0.3062500059604645,0.0350000001490116,-0.1574999988079071,1,1
0.8325899839401245,0.3923699855804443,-9.713549613952637,0.2712500095367431,-0.1574999988079071,-0.1837500035762787,1,1
0.8421599864959717,0.4019399881362915,-9.751830101013184,0.4025000035762787,0.0175000000745058,-0.1312499940395355,1,1
0.8134499788284302,0.3827999830245971,-9.7039794921875,0.3762499988079071,0.3062500059604645,0.0700000002980232,1,1
0.8995800018310547,0.37322998046875,-9.742259979248049,0.3587500154972076,0.2100000083446502,0.0525000020861625,1,1
0.8134499788284302,0.3827999830245971,-9.742259979248049,0.3062500059604645,-0.0350000001490116,-0.1574999988079071,1,1
0.861299991607666,0.4019399881362915,-9.723119735717772,0.3499999940395355,0.0874999985098838,-0.0874999985098838,1,1
0.9378599524497986,0.430649995803833,-9.76140022277832,0.3762499988079071,0.0612500011920928,0.3937500119209289,1,1
0.96656996011734,0.3827999830245971,-9.742259979248049,0.4462499916553497,0.1487500071525573,1.7062499523162842,1,1
0.8134499788284302,0.4115099906921386,-9.79967975616455,0.4900000095367431,0.3937500119209289,3.569999933242798,1,1
0.8421599864959717,0.4784999787807464,-9.780539512634276,0.6825000047683716,0.6387500166893005,5.127500057220459,1,1
0.4689299762248993,0.4976399838924408,-9.790109634399414,1.3037500381469729,0.4112499952316284,6.28249979019165,1,1
0.3253799974918365,0.2679599821567535,-9.73268985748291,0.7875000238418579,0.0175000000745058,6.965000152587891,1,1
0.6029099822044373,0.1913999915122985,-9.751830101013184,-0.918749988079071,-0.1574999988079071,7.297500133514404,1,1
0.8708699941635132,0.4880699813365936,-9.684840202331545,-1.53125,-0.3675000071525574,7.253749847412109,1,1
0.7751699686050415,0.3923699855804443,-9.895380020141602,0.3762499988079071,2.8787500858306885,0.3412500023841858,1,1
0.5837699770927429,0.3827999830245971,-9.895380020141602,0.6387500166893005,5.757500171661377,1.1987500190734863,1,1
0.4497900009155273,0.3349500000476837,-9.885809898376465,0.612500011920929,9.782500267028809,1.3825000524520874,1,1
0.4210799932479858,0.3349500000476837,-9.895380020141602,0.5425000190734863,14.699999809265137,0.9712499976158142,1,1
0.7081800103187561,0.3062399923801422,-9.97194004058838,0.3762499988079071,20.125,0.2100000083446502,1,1
0.7655999660491943,0.296669989824295,-9.991079330444336,0.6650000214576721,25.58500099182129,-0.9100000262260436,1,1
1.062269926071167,0.2296800017356872,-9.876239776611328,1.1024999618530271,30.520000457763672,-2.484999895095825,1,1
2.6221799850463867,-2.2872300148010254,-23.034990310668945,2.8787500858306885,36.24250030517578,-6.011250019073486,1,1
0.5741999745368958,-0.0861300006508827,-11.742389678955078,14.36750030517578,10.010000228881836,-2.065000057220459,1,1
0.3158099949359894,0.9378599524497986,-11.235179901123049,11.366250038146973,4.269999980926514,-1.53125,1,1
0.2488199919462204,0.918720006942749,-5.320919990539551,-2.021250009536743,17.010000228881836,-1.6362500190734863,1,1
3.416489839553833,1.2058199644088743,-20.297969818115234,-15.303750038146973,24.123750686645508,-1.5225000381469729,1,1
0.4784999787807464,0.5646299719810486,-7.110509872436523,-21.82250022888184,11.821249961853027,-1.680000066757202,1,1
1.3206599950790403,-0.1244099959731102,-10.268610000610352,-36.032501220703125,20.912500381469727,-2.240000009536743,1,1
1.406790018081665,-0.1339799910783767,-18.087299346923828,-47.845001220703125,21.770000457763672,-1.8200000524520876,1,1
1.5407699346542358,-0.296669989824295,-8.536439895629883,-59.09749984741211,22.190000534057617,-2.5374999046325684,1,1
0.8995800018310547,0.4115099906921386,-16.374269485473633,-70.9887466430664,26.118749618530277,-2.782500028610229,1,1
1.6268999576568604,0.8421599864959717,-15.599099159240724,-72.7125015258789,23.33625030517578,-2.309999942779541,1,1
1.4163600206375122,1.3015199899673462,-7.923959732055664,-58.46749877929688,20.99125099182129,-1.7937500476837158,1,1
0.430649995803833,0.1626899987459182,-7.904819965362549,-55.466251373291016,25.58500099182129,-1.6974999904632568,1,1
1.2153899669647217,-0.1913999915122985,-11.149049758911133,-40.56499862670898,28.57749938964844,-1.96875,1,1
0.9378599524497986,-0.1435499936342239,-9.656129837036133,-33.748748779296875,29.89875030517578,-2.668750047683716,1,1
0.8900099992752075,0.2679599821567535,-9.675270080566406,-29.006250381469727,31.3075008392334,-3.3162500858306885,1,1
0.9952799677848816,0.354090005159378,-10.670549392700195,-25.8387508392334,32.79500198364258,-3.981250047683716,1,1
1.272809982299805,0.354090005159378,-9.751830101013184,-22.68000030517578,33.46875,-4.514999866485596,1,1
1.93313992023468,0.1722600013017654,-10.641839981079102,-22.24250030517578,34.501251220703125,-5.215000152587891,1,1
2.2872300148010254,0.296669989824295,-9.981510162353516,-22.75,34.59749984741211,-6.046249866485596,1,1
2.4881999492645264,0.4689299762248993,-10.182479858398438,-24.71875,34.755001068115234,-6.833750247955322,1,1
2.2585198879241943,0.6507599949836731,-10.47914981842041,-26.46000099182129,35.11375045776367,-7.472499847412109,1,1
1.5790499448776243,0.7943099737167358,-10.593989372253418,-26.48624992370605,35.61249923706055,-7.612500190734863,1,1
1.3780800104141235,0.8708699941635132,-10.651410102844238,-25.024999618530277,36.76750183105469,-7.621250152587891,1,1
1.081409931182861,0.96656996011734,-10.632269859313965,-22.618749618530277,38.255001068115234,-7.507500171661377,1,1
0.9282899498939514,0.918720006942749,-10.766249656677246,-19.53874969482422,39.89125061035156,-7.306250095367432,1,1
0.918720006942749,1.0048500299453735,-10.641839981079102,-15.609999656677246,41.79875183105469,-6.973750114440918,1,1
1.0335599184036257,1.177109956741333,-10.747109413146973,-11.322500228881836,43.57500076293945,-6.203750133514404,1,1
1.177109956741333,1.435499906539917,-10.727970123291016,-7.017499923706055,45.001251220703125,-5.284999847412109,1,1
1.272809982299805,1.454639911651611,-10.689689636230469,-3.666249990463257,46.366249084472656,-4.086249828338623,1,1
1.4450699090957642,1.4642099142074585,-10.526999473571776,-1.6362500190734863,47.57374954223633,-2.555000066757202,1,1
1.780019998550415,1.492919921875,-10.842809677124023,-0.9012500047683716,48.42250061035156,-0.612500011920929,1,1
2.1436798572540283,1.6268999576568604,-11.330880165100098,-1.4350000619888306,49.03499984741211,1.4262499809265137,1,1
2.469059944152832,1.837440013885498,-11.694540023803713,-3.815000057220459,49.77000045776367,3.447499990463257,1,1
3.7131597995758057,2.325510025024414,-13.981769561767578,-139.37875366210938,50.758750915527344,-2.870000123977661,1,1
2.564759969711304,1.8757199048995967,-12.163469314575195,-8.8725004196167,50.557498931884766,5.372499942779541,1,1
2.5456199645996094,1.770449995994568,-12.594120025634766,-16.861249923706055,51.25749969482422,6.684999942779541,1,1
2.6604599952697754,1.5981899499893188,-12.919499397277832,-27.86000061035156,51.852500915527344,7.06125020980835,1,1
3.0623998641967773,1.492919921875,-13.646820068359377,-41.26499938964844,52.64875030517578,6.518750190734863,1,1
2.823149919509888,1.4642099142074585,-14.11574935913086,-71.8812484741211,54.153751373291016,1.190000057220459,1,1
3.0623998641967773,1.837440013885498,-14.259299278259276,-112.2624969482422,55.38750076293945,-2.161250114440918,1,1
3.473909854888916,1.8948599100112915,-14.106179237365724,-128.7737579345703,54.88875198364258,-3.6050000190734863,1,1
3.531329870223999,2.1436798572540283,-14.04875946044922,-133.78750610351562,53.786251068115234,-3.771250009536743,1,1
3.5983200073242188,2.210669994354248,-14.058329582214355,-137.1824951171875,52.41249847412109,-3.447499990463257,1,1
3.2346599102020264,3.1102499961853027,-13.77122974395752,-78.33000183105469,19.2237491607666,-6.072500228881836,1,1
3.7801499366760254,2.44035005569458,-13.83821964263916,-141.05874633789062,46.77750015258789,-1.1375000476837158,1,1
4.162950038909912,1.9522799253463743,-14.288009643554688,-140.8312530517578,42.23625183105469,0.2450000047683715,1,1
4.402199745178223,2.91884994506836,-13.627679824829102,-135.52874755859375,40.01375198364258,0.3062500059604645,1,1
3.3973498344421387,2.727449893951416,-14.230589866638184,-126.06124877929688,34.10750198364258,0.8050000071525574,1,1
3.5217599868774414,2.593469858169556,-14.029619216918944,-120.40875244140624,31.75374984741211,0.2012500017881393,1,1
3.674880027770996,2.583899974822998,-13.933919906616213,-113.71500396728516,29.26000022888184,-1.0412499904632568,1,1
3.5504698753356934,2.670029878616333,-13.943490028381348,-106.2074966430664,26.65250015258789,-2.528749942779541,1,1
3.2633700370788574,2.91884994506836,-13.953059196472168,-97.58000183105467,24.24625015258789,-4.007500171661377,1,1
3.1485300064086914,3.043259859085083,-13.74251937866211,-88.27874755859375,21.787500381469727,-5.162499904632568,1,1
3.311219930648804,3.330359935760498,-13.675529479980469,-67.98750305175781,16.69499969482422,-6.615000247955322,1,1
3.2059500217437744,3.4547698497772217,-13.685099601745604,-57.5837516784668,13.956250190734863,-6.50124979019165,1,1
3.1389598846435547,3.435629844665528,-13.83821964263916,-48.00249862670898,11.366250038146973,-6.142499923706055,1,1
3.1485300064086914,3.445199966430664,-13.886069297790527,-39.90874862670898,8.723750114440918,-5.731249809265137,1,1
3.215519905090332,3.4547698497772217,-13.79994010925293,-34.10750198364258,5.96750020980835,-5.425000190734863,1,1
3.531329870223999,4.335209846496582,-13.732949256896973,-31.613750457763672,-0.1050000041723251,-4.103750228881836,1,1
3.808859825134277,4.88070011138916,-13.694669723510742,-36.39125061035156,-3.3162500858306885,-2.799999952316284,1,1
4.229939937591553,4.191659927368164,-14.402849197387695,-45.75374984741211,-5.914999961853027,-1.662500023841858,1,1
4.30649995803833,3.674880027770996,-14.6516695022583,-58.40625,-7.0,-1.9075000286102293,1,1
3.761009931564331,4.325639724731445,-14.30714988708496,-72.34500122070312,-7.525000095367432,-2.84375,1,1
3.4834799766540527,4.536180019378662,-13.933919906616213,-86.3187484741211,-8.49625015258789,-3.158750057220459,1,1
3.674880027770996,4.430910110473633,-13.847789764404297,-99.80249786376952,-10.018750190734863,-3.4825000762939453,1,1
3.827999830245972,4.30649995803833,-14.201879501342772,-112.3062515258789,-11.138750076293944,-4.269999980926514,1,1
3.627029895782471,4.172519683837891,-14.268869400024414,-122.77999877929688,-11.62874984741211,-5.565000057220459,1,1
3.339929819107056,4.124670028686523,-14.000909805297852,-130.07749938964844,-12.092499732971191,-7.420000076293945,1,1
2.9475598335266118,4.201230049133301,-13.752089500427246,-133.38499450683594,-13.037500381469728,-9.703749656677246,1,1
2.7083098888397217,4.296929836273193,-13.244879722595217,-131.9499969482422,-14.673749923706056,-12.03125,1,1
2.8040099143981934,4.363919734954834,-13.206599235534668,-125.53624725341795,-16.940000534057617,-14.03499984741211,1,1
3.071969985961914,4.459619998931885,-13.05348014831543,-114.30125427246094,-19.4950008392334,-15.618749618530272,1,1
1.9618499279022217,5.397480010986328,-10.814099311828612,-117.45999908447266,-53.87374877929688,-21.2450008392334,1,1
2.0575499534606934,5.42618989944458,-10.613129615783691,-102.7249984741211,-56.4375,-22.417499542236328,1,1
2.038409948348999,5.512320041656494,-10.460009574890137,-87.88500213623047,-59.0625,-23.34499931335449,1,1
2.153249979019165,5.684579849243164,-10.469579696655272,-74.08625030517578,-61.337501525878906,-24.13249969482422,1,1
2.038409948348999,5.713289737701416,-10.31645965576172,-62.02000045776367,-63.209999084472656,-24.64875030517578,1,1
1.7130299806594849,5.608019828796387,-10.335599899291992,-52.64875030517578,-64.82875061035156,-25.07749938964844,1,1
1.7513099908828735,5.684579849243164,-10.297319412231444,-45.98125076293945,-66.04499816894531,-25.576250076293945,1,1
2.899709939956665,5.837699890136719,-10.278180122375488,-41.3962516784668,-66.85874938964844,-25.873750686645508,1,1
2.0862598419189453,5.684579849243164,-10.211189270019531,-38.01874923706055,-67.42749786376953,-26.083749771118164,1,1
1.11968994140625,5.579309940338135,-9.780539512634276,-35.70000076293945,-68.07499694824219,-26.565000534057617,1,1
0.8708699941635132,5.713289737701416,-9.675270080566406,-33.9587516784668,-69.17749786376953,-27.09000015258789,1,1
1.081409931182861,5.722859859466553,-9.445590019226074,-32.52375030517578,-70.18375396728516,-27.221250534057617,1,1
1.3589400053024292,5.7037200927734375,-9.254189491271973,-31.412500381469727,-71.0062484741211,-27.09000015258789,1,1
1.406790018081665,5.713289737701416,-9.062789916992188,-30.940000534057617,-71.80249786376953,-26.801250457763672,1,1
1.157969951629639,5.62716007232666,-8.804399490356445,-31.44750022888184,-72.64250183105469,-26.38999938964844,1,1
0.9761399626731871,5.483609676361084,-8.565150260925293,-32.9787483215332,-73.46500396728516,-26.02250099182129,1,1
1.0048500299453735,5.340059757232666,-8.345039367675781,-35.349998474121094,-74.27874755859375,-25.58500099182129,1,1
1.2440999746322632,5.234789848327637,-8.182350158691406,-37.80875015258789,-74.9175033569336,-25.112499237060547,1,1
1.8565798997879028,5.043389797210693,-7.589009761810303,-41.6150016784668,-76.2562484741211,-23.502500534057617,1,1
1.8948599100112915,5.014679908752441,-7.110509872436523,-39.462501525878906,-77.9625015258789,-22.52250099182129,1,1
1.9905599355697632,5.033819675445557,-7.024379730224609,-37.45000076293945,-78.94249725341797,-22.006250381469727,1,1
1.7130299806594849,3.2059500217437744,-4.899839878082275,-11.138750076293944,-80.35124969482422,-16.91374969482422,1,1
2.009700059890747,1.5790499448776243,-1.9427099227905276,-88.18250274658203,-47.845001220703125,-9.239999771118164,1,1
2.497769832611084,4.88070011138916,-7.129649639129639,-35.13999938964844,-79.68624877929688,-21.489999771118164,1,1
2.3159399032592773,4.507469654083252,-6.555449962615967,-32.243751525878906,-80.31625366210938,-21.21000099182129,1,1
1.847009897232056,4.478759765625,-6.354479789733887,-29.09375,-81.2437515258789,-21.113750457763672,1,1
1.5599099397659302,4.277790069580078,-6.2204999923706055,-25.7862491607666,-82.1187515258789,-20.93000030517578,1,1
1.349370002746582,4.115099906921387,-5.780279636383057,-22.3125,-82.73124694824219,-20.64125061035156,1,1
1.0144200325012207,4.048110008239746,-5.464469909667969,-18.96999931335449,-83.0374984741211,-20.186250686645508,1,1
0.8995800018310547,3.808859825134277,-5.608019828796387,-15.93375015258789,-83.20375061035156,-19.512500762939453,1,1
1.3302299976348877,3.789719820022583,-5.2156500816345215,-13.2475004196167,-82.73124694824219,-18.681249618530277,1,1
1.5886199474334717,3.5983200073242188,-5.206079959869385,-11.532500267028809,-81.76000213623047,-17.666250228881836,1,1
3.0623998641967773,4.095959663391113,-2.4020700454711914,-14.717499732971191,-78.90750122070312,-15.837499618530272,1,1
1.923569917678833,2.7083098888397217,-3.93326997756958,-23.26625061035156,-76.02874755859375,-15.09375,1,1
1.847009897232056,2.6796000003814697,-2.899709939956665,-35.69124984741211,-69.79000091552734,-14.463749885559082,1,1
1.4163600206375122,2.2872300148010254,-2.6221799850463867,-42.98875045776367,-66.99874877929688,-14.166250228881836,1,1
1.435499906539917,2.411639928817749,-2.124539852142334,-50.557498931884766,-64.04125213623047,-14.14875030517578,1,1
1.607759952545166,2.44035005569458,-1.7321699857711792,-58.493751525878906,-61.477500915527344,-13.623749732971191,1,1
1.7513099908828735,2.2202398777008057,-1.6747499704360962,-66.76249694824219,-58.852500915527344,-12.61750030517578,1,1
1.818300008773804,1.837440013885498,-1.6938899755477903,-74.88249969482422,-55.78125,-11.515000343322754,1,1
1.847009897232056,1.492919921875,-1.818300008773804,-82.39875030517578,-52.053749084472656,-10.56999969482422,1,1
2.2010998725891118,3.9236998558044434,-1.1962499618530271,-94.77999877929688,-21.927499771118164,7.743750095367432,1,1
1.0909799337387085,1.0048500299453735,-2.076689958572388,-92.01499938964844,-43.2599983215332,-7.997499942779541,1,1
0.0,1.062269926071167,-1.8565798997879028,-94.73625183105467,-38.63124847412109,-7.393750190734863,1,1
-0.3636599779129028,1.1962499618530271,-1.7895900011062622,-96.84500122070312,-34.60625076293945,-6.728750228881836,1,1
-0.3923699855804443,1.5599099397659302,-2.268090009689331,-98.13999938964844,-30.957500457763672,-5.565000057220459,1,1
-0.2679599821567535,1.9714199304580688,-2.1628198623657227,-98.64749908447266,-27.614999771118164,-3.71875,1,1
0.37322998046875,2.2489500045776367,-2.10539984703064,-98.72624969482422,-24.806249618530277,-1.2949999570846558,1,1
1.157969951629639,2.430779933929444,-2.0001299381256104,-98.42874908447266,-22.46125030517578,1.2512500286102295,1,1
1.7417399883270264,2.6221799850463867,-1.7034599781036377,-97.79000091552734,-21.0,3.3862500190734863,1,1
2.181959867477417,3.0049798488616943,-1.2249599695205688,-96.7925033569336,-20.96500015258789,5.425000190734863,1,1
1.7130299806594849,3.904559850692749,-1.397220015525818,-91.4375,-22.93375015258789,10.605000495910645,1,1
1.0431299209594729,3.8567099571228023,-1.6268999576568604,-86.91374969482422,-23.677499771118164,13.125,1,1
0.5837699770927429,3.9428398609161377,-1.722599983215332,-81.2874984741211,-24.01000022888184,14.988750457763672,1,1
0.4497900009155273,3.847139835357666,-1.9427099227905276,-74.35749816894531,-24.158750534057617,16.239999771118164,1,1
0.4880699813365936,3.7227299213409424,-2.2202398777008057,-66.1937484741211,-24.02750015258789,16.5987491607666,1,1
0.5933399796485901,3.904559850692749,-2.411639928817749,-56.70000076293945,-23.756250381469727,16.4325008392334,1,1
0.6794700026512146,4.162950038909912,-2.564759969711304,-45.911251068115234,-23.42374992370605,15.71500015258789,1,1
0.6507599949836731,4.536180019378662,-2.6796000003814697,-34.08124923706055,-23.1612491607666,14.831250190734863,1,1
0.4689299762248993,5.043389797210693,-2.842289924621582,-21.23624992370605,-23.056249618530277,14.175000190734863,1,1
-1.157969951629639,7.416749954223633,-4.258649826049805,56.866249084472656,-23.170000076293945,17.5,1,1
-1.1675399541854858,7.541159629821777,-4.459619998931885,51.75624847412109,-21.857500076293945,17.7450008392334,1,1
-1.1483999490737915,7.6847100257873535,-4.756289958953857,44.90499877929688,-20.5887508392334,18.17374992370605,1,1
-1.1866799592971802,7.818689823150635,-4.976399898529053,36.959999084472656,-19.40749931335449,18.917499542236328,1,1
-1.177109956741333,7.770839691162109,-5.062530040740967,28.51625061035156,-18.462499618530277,19.72249984741211,1,1
-1.0335599184036257,7.713419914245605,-5.072099685668945,20.037500381469727,-18.165000915527344,20.3700008392334,1,1
-0.7751699686050415,7.722990036010742,-5.129519939422607,11.899999618530272,-18.61124992370605,20.877500534057617,1,1
-0.4976399838924408,7.847399711608887,-5.2252197265625,4.445000171661377,-19.41625022888184,21.4112491607666,1,1
-0.4115099906921386,8.000519752502441,-5.349629878997803,-2.1787500381469727,-20.3174991607666,22.225000381469727,1,1
-0.4402199983596802,7.990949630737305,-5.550600051879883,-7.892499923706055,-21.332500457763672,23.35375022888184,1,1
-0.4976399838924408,7.962239742279053,-5.608019828796387,-12.65250015258789,-22.268749237060547,24.377500534057617,1,1
-0.37322998046875,7.952669620513916,-6.019529819488525,-14.47249984741211,-42.087501525878906,24.815000534057617,1,1
-0.5550599694252014,7.83782958984375,-5.588880062103272,-16.353750228881836,-23.37125015258789,25.15625,1,1
-0.5263499617576599,7.876109600067139,-5.59844970703125,-18.99625015258789,-24.66625022888184,25.707500457763672,1,1
-0.2583899796009063,8.096220016479492,-5.770709991455078,-21.23624992370605,-27.125,26.888750076293945,1,1
-0.4115099906921386,8.115360260009766,-5.942969799041748,-21.201250076293945,-29.723751068115234,28.393749237060547,1,1
-0.5741999745368958,8.000519752502441,-5.942969799041748,-20.649999618530277,-32.35750198364258,28.988750457763672,1,1
-0.354090005159378,7.9430999755859375,-6.076950073242188,-20.41374969482422,-35.647499084472656,28.420000076293945,1,1
-0.354090005159378,8.057939529418945,-6.2204999923706055,-20.475000381469727,-39.21749877929688,27.55375099182129,1,1
-0.4402199983596802,7.904819965362549,-6.258780002593994,-19.311250686645508,-39.375,26.880001068115234,1,1
-0.4689299762248993,7.914389610290527,-6.210929870605469,-17.43000030517578,-40.61750030517578,25.917499542236328,1,1
-0.2583899796009063,8.105790138244629,-5.9716796875,-10.517499923706056,-43.741249084472656,23.738750457763672,1,1
-0.1626899987459182,8.287619590759277,-5.895119667053223,-5.713749885559082,-45.526248931884766,23.04750061035156,1,1
-0.2488199919462204,8.383319854736328,-6.086519718170166,-0.1487500071525573,-47.04875183105469,22.627500534057617,1,1
-0.4784999787807464,8.335470199584961,-5.502749919891357,5.757500171661377,-48.22999954223633,22.39125061035156,1,1
-0.7847399711608887,8.354609489440918,-5.914259910583496,11.173749923706056,-49.306251525878906,22.198749542236328,1,1
-1.081409931182861,8.191919326782227,-5.713289737701416,16.012500762939453,-49.813751220703125,21.918750762939453,1,1
-1.1962499618530271,8.124929428100586,-5.588880062103272,19.85375022888184,-49.90999984741211,21.65625,1,1
-1.11968994140625,8.14406967163086,-5.761139869689941,22.52250099182129,-49.875,21.38500022888184,1,1
-1.177109956741333,8.14406967163086,-5.7324299812316895,24.31624984741211,-49.525001525878906,21.16625022888184,1,1
-1.234529972076416,8.14406967163086,-5.79941987991333,25.23500061035156,-49.04375076293945,20.93000030517578,1,1
-1.3110899925231934,7.971809864044189,-5.9621100425720215,25.200000762939453,-48.6150016784668,19.94124984741211,1,1
-1.177109956741333,8.029230117797852,-6.10565996170044,23.668750762939453,-48.05500030517578,18.934999465942383,1,1
-0.8708699941635132,8.086649894714355,-6.201359748840332,22.90749931335449,-48.16875076293945,17.832500457763672,1,1
-0.6411899924278259,8.124929428100586,-6.325769901275635,22.16374969482422,-48.7287483215332,16.69499969482422,1,1
-0.4689299762248993,8.077079772949219,-6.37362003326416,21.341249465942383,-49.29750061035156,15.470000267028809,1,1
-0.3636599779129028,8.048369407653809,-6.440609931945801,20.34375,-50.17250061035156,13.991250038146973,1,1
-0.2583899796009063,7.904819965362549,-6.498029708862305,18.707500457763672,-51.1349983215332,12.197500228881836,1,1
-0.2009699940681457,7.809119701385498,-6.440609931945801,16.764999389648438,-52.12374877929688,10.106249809265137,1,1
-0.1435499936342239,7.809119701385498,-6.488460063934326,14.428750038146973,-53.19124984741211,7.909999847412109,1,1
-0.1913999915122985,7.799549579620361,-6.4501800537109375,11.978750228881836,-54.10124969482422,5.836249828338623,1,1
-0.2392499893903732,7.809119701385498,-6.421469688415527,9.7475004196167,-54.82749938964844,3.954999923706055,1,1
-0.354090005159378,7.770839691162109,-6.325769901275635,7.761250019073486,-55.48374938964844,2.275000095367432,1,1
-0.4976399838924408,7.655999660491943,-6.163079738616943,6.002500057220459,-55.991249084472656,0.7612500190734863,1,1
-0.6603299975395203,7.5698699951171875,-6.134369850158691,4.53249979019165,-56.54249954223633,-0.5862500071525574,1,1
-0.7847399711608887,7.483739852905273,-6.067379951477051,3.3600001335144043,-56.73500061035156,-1.7937500476837158,1,1
-0.9378599524497986,7.416749954223633,-6.048239707946777,2.336250066757202,-56.62125015258789,-2.6600000858306885,1,1
-1.1101199388504028,7.301909923553467,-5.9621100425720215,1.4700000286102295,-56.28874969482422,-3.3162500858306885,1,1
-1.3110899925231934,7.187069892883301,-5.9621100425720215,1.1549999713897705,-56.01750183105469,-3.71875,1,1
-1.397220015525818,7.081799983978272,-5.990819931030273,1.7412500381469729,-55.755001068115234,-3.972500085830689,1,1
-1.349370002746582,7.053089618682861,-5.9621100425720215,3.421250104904175,-55.42250061035156,-4.007500171661377,1,1
-1.2058199644088743,6.899970054626465,-5.990819931030273,9.651249885559082,-55.571250915527344,-3.867500066757202,1,1
-0.9761399626731871,6.91910982131958,-6.067379951477051,17.31624984741211,-56.62125015258789,-3.009999990463257,1,1
-1.1388299465179443,6.832979679107666,-6.029099941253662,24.762500762939453,-57.977500915527344,-1.715000033378601,1,1
-1.1675399541854858,6.804269790649414,-6.009959697723389,27.903749465942383,-58.6775016784668,-1.0237499475479126,1,1
-1.4450699090957642,6.737279891967773,-6.029099941253662,32.39250183105469,-59.727500915527344,0.4724999964237213,1,1
-1.5599099397659302,6.727709770202637,-6.019529819488525,33.775001525878906,-60.17375183105469,1.225000023841858,1,1
-1.5599099397659302,6.698999881744385,-6.009959697723389,34.5099983215332,-60.55875015258789,2.0299999713897705,1,1
-1.646039962768555,6.670289993286133,-5.990819931030273,34.501251220703125,-60.751251220703125,2.887500047683716,1,1
-1.665179967880249,6.612869739532471,-6.038670063018799,33.36375045776367,-60.96125030517578,3.788749933242798,1,1
-1.7130299806594849,6.555449962615967,-6.115230083465576,30.826250076293945,-60.970001220703125,4.760000228881836,1,1
-1.5981899499893188,6.431039810180664,-6.124799728393555,26.783750534057617,-60.98749923706055,5.713749885559082,1,1
-1.5407699346542358,6.431039810180664,-6.325769901275635,21.420000076293945,-60.68999862670898,6.824999809265137,1,1
-1.3589400053024292,6.354479789733887,-6.306629657745361,15.338749885559082,-60.383750915527344,7.93625020980835,1,1
-1.454639911651611,6.258780002593994,-6.411900043487549,9.029999732971191,-59.85874938964844,8.907500267028809,1,1
-1.7417399883270264,6.268349647521973,-6.37362003326416,2.817500114440918,-59.438751220703125,9.791250228881836,1,1
-1.7608799934387207,6.230069637298584,-6.182219982147217,-3.141249895095825,-59.31624984741211,10.543749809265137,1,1
-1.5694799423217771,6.258780002593994,-6.277919769287109,-8.609999656677246,-59.31624984741211,11.22624969482422,1,1
-1.406790018081665,6.230069637298584,-6.191789627075195,-13.4662504196167,-59.34249877929688,11.821249961853027,1,1
-1.4259300231933594,6.34490966796875,-6.057809829711914,-17.202499389648438,-59.53499984741211,12.43375015258789,1,1
-1.5024899244308472,6.335340023040772,-6.00039005279541,-19.62624931335449,-59.78874969482422,13.037500381469728,1,1
-1.2153899669647217,6.890399932861328,-5.722859859466553,0.5687500238418579,-64.38249969482422,14.489999771118164,1,1
-1.4642099142074585,6.794699668884277,-5.79941987991333,28.0262508392334,-68.82749938964844,12.582500457763672,1,1
-1.5599099397659302,6.737279891967773,-5.35920000076294,34.685001373291016,-68.74874877929688,21.03499984741211,1,1
-1.5216299295425415,6.37362003326416,-5.990819931030273,-20.833749771118164,-60.17375183105469,13.5625,1,1
-1.435499906539917,6.440609931945801,-5.952539920806885,-21.096250534057617,-60.62874984741211,14.131250381469728,1,1
-1.5120599269866943,6.440609931945801,-5.856839656829834,-20.34375,-61.022499084472656,14.595000267028809,1,1
-1.5694799423217771,6.555449962615967,-5.895119667053223,-18.926250457763672,-61.442501068115234,15.05875015258789,1,1
-1.665179967880249,6.670289993286133,-5.904689788818359,-16.91374969482422,-61.60874938964844,15.478750228881836,1,1
-1.6268999576568604,6.7085700035095215,-5.914259910583496,-14.323750495910645,-61.83625030517578,15.828749656677246,1,1
-1.5407699346542358,6.698999881744385,-5.828129768371582,-11.217499732971191,-62.133750915527344,15.811249732971191,1,1
-1.397220015525818,6.689429759979248,-5.761139869689941,-7.664999961853027,-62.8337516784668,15.522500038146973,1,1
-1.3780800104141235,6.775559902191162,-5.808990001678467,-3.71875,-63.58625030517578,14.918749809265137,1,1
-1.234529972076416,6.957389831542969,-5.866409778594971,5.022500038146973,-65.16999816894531,14.166250228881836,1,1
-1.234529972076416,7.072229862213135,-5.79941987991333,9.712499618530272,-65.86125183105469,13.74625015258789,1,1
-1.3015199899673462,6.995669841766357,-5.694149971008301,14.052499771118164,-66.56124877929688,13.457500457763672,1,1
-1.3876500129699707,7.014809608459473,-5.789849758148193,17.954999923706055,-67.2699966430664,13.046250343322754,1,1
-1.5407699346542358,7.024379730224609,-5.741999626159668,21.323749542236328,-67.93499755859375,12.713749885559082,1,1
-1.6173299551010132,6.995669841766357,-5.79941987991333,24.07999992370605,-68.3375015258789,12.521249771118164,1,1
-1.531199932098389,6.909539699554443,-5.818559646606445,25.99625015258789,-68.6875,12.3462495803833,1,1
-1.435499906539917,6.899970054626465,-5.789849758148193,27.20375061035156,-68.89749908447266,12.258749961853027,1,1
-1.4163600206375122,6.85211992263794,-5.789849758148193,27.79874992370605,-68.93250274658203,12.3462495803833,1,1
-1.5694799423217771,6.775559902191162,-5.780279636383057,28.2450008392334,-68.73124694824219,13.0024995803833,1,1
-1.655609965324402,6.7085700035095215,-5.675009727478027,28.4375,-68.65250396728516,13.5625,1,1
-1.7991600036621094,6.54587984085083,-5.569739818572998,28.37624931335449,-68.52999877929688,14.06999969482422,1,1
-1.7608799934387207,6.641579627990723,-5.588880062103272,28.350000381469727,-68.39875030517578,14.682499885559082,1,1
-1.665179967880249,6.7181396484375,-5.569739818572998,28.69124984741211,-68.31999969482422,15.557499885559082,1,1
-1.6843199729919434,6.785130023956299,-5.512320041656494,29.408750534057617,-68.15374755859375,16.6512508392334,1,1
-1.780019998550415,6.737279891967773,-5.378339767456055,30.677499771118164,-68.1187515258789,17.7450008392334,1,1
-1.7991600036621094,6.727709770202637,-5.349629878997803,32.033748626708984,-68.30249786376953,18.7862491607666,1,1
-1.770449995994568,6.756419658660889,-5.330489635467529,33.442501068115234,-68.51249694824219,19.888750076293945,1,1
-1.8087300062179563,6.612869739532471,-5.05295991897583,28.306249618530277,-67.42749786376953,31.333749771118164,1,1
-1.550339937210083,6.775559902191162,-5.349629878997803,35.72624969482422,-68.86250305175781,22.1200008392334,1,1
-1.5694799423217771,6.775559902191162,-5.330489635467529,36.56624984741211,-68.86250305175781,23.17875099182129,1,1
-1.6364699602127075,6.74685001373291,-5.320919990539551,37.07374954223633,-68.8187484741211,24.237499237060547,1,1
-1.665179967880249,6.698999881744385,-5.273069858551025,37.24874877929688,-68.7750015258789,25.17374992370605,1,1
-1.6268999576568604,6.689429759979248,-5.2156500816345215,36.977500915527344,-68.69625091552734,26.04874992370605,1,1
-1.722599983215332,6.689429759979248,-5.167799949645996,36.505001068115234,-68.62625122070312,26.90625,1,1
-1.8087300062179563,6.689429759979248,-5.119949817657471,35.630001068115234,-68.47750091552734,27.842500686645508,1,1
-1.847009897232056,6.641579627990723,-5.129519939422607,34.05500030517578,-68.22374725341797,28.9012508392334,1,1
-1.8852899074554443,6.603299617767334,-5.081669807434082,31.71875,-67.8125,30.03874969482422,1,1
-1.7895900011062622,6.555449962615967,-5.100810050964356,24.31624984741211,-67.13874816894531,32.716251373291016,1,1
-1.7034599781036377,6.54587984085083,-5.119949817657471,19.967500686645508,-66.84124755859375,34.098751068115234,1,1
-1.5981899499893188,6.498029708862305,-5.043389797210693,15.881250381469728,-66.57875061035156,35.306251525878906,1,1
-1.5120599269866943,6.54587984085083,-4.947690010070801,12.28499984741211,-66.68375396728516,36.49625015258789,1,1
-1.3876500129699707,6.54587984085083,-4.928549766540527,9.467499732971191,-66.98999786376953,37.651248931884766,1,1
-1.1962499618530271,6.565019607543945,-4.918979644775391,7.647500038146973,-67.39250183105469,38.86750030517578,1,1
-1.1962499618530271,6.679859638214111,-4.832849979400635,7.682499885559082,-68.19750213623047,41.5625,1,1
-1.3876500129699707,6.612869739532471,-4.708439826965332,11.88249969482422,-68.93250274658203,44.17000198364258,1,1
-1.3685100078582764,6.593729972839356,-4.641449928283691,14.7787504196167,-69.2125015258789,45.43000030517578,1,1
-1.1675399541854858,6.632009983062744,-4.61274003982544,21.332500457763672,-69.62374877929688,47.932498931884766,1,1
-1.1388299465179443,6.670289993286133,-4.536180019378662,24.85874938964844,-69.72000122070312,49.06999969482422,1,1
-1.1483999490737915,6.698999881744385,-4.507469654083252,28.350000381469727,-69.78125,50.34749984741211,1,1
-1.0239899158477783,6.670289993286133,-4.488329887390137,31.552499771118164,-69.93875122070312,51.59000015258789,1,1
-0.803879976272583,6.651149749755859,-4.517039775848389,33.95000076293945,-70.1312484741211,52.81499862670898,1,1
-0.5263499617576599,6.7085700035095215,-4.478759765625,35.45500183105469,-70.36750030517578,53.87374877929688,1,1
-0.37322998046875,6.7085700035095215,-4.478759765625,35.91875076293945,-70.66500091552734,54.98500061035156,1,1
-0.2488199919462204,6.737279891967773,-4.497900009155273,35.6037483215332,-71.04125213623047,56.01750183105469,1,1
-0.1626899987459182,6.74685001373291,-4.450049877166748,34.536251068115234,-71.32125091552734,57.05875015258789,1,1
-0.1435499936342239,6.7181396484375,-4.459619998931885,32.45375061035156,-71.51374816894531,58.161251068115234,1,1
-0.0574200004339218,6.765989780426025,-4.421339988708496,29.30375099182129,-71.68875122070312,59.255001068115234,1,1
0.0287100002169609,6.698999881744385,-4.354350090026856,25.09499931335449,-71.94249725341797,60.383750915527344,1,1
0.1818299889564514,6.7181396484375,-4.268219947814941,20.15999984741211,-72.23124694824219,61.477500915527344,1,1
0.2775299847126007,6.7085700035095215,-4.182089805603027,14.734999656677246,-72.47624969482422,62.64125061035156,1,1
0.2392499893903732,6.775559902191162,-4.048110008239746,9.318750381469728,-72.7387466430664,63.813751220703125,1,1
0.2105399966239929,6.823410034179688,-3.9811198711395264,4.15625,-72.9487533569336,65.02999877929688,1,1
0.2870999872684479,6.74685001373291,-3.808859825134277,-0.5074999928474426,-73.12374877929688,66.20249938964844,1,1
0.4880699813365936,6.689429759979248,-3.646169900894165,-4.550000190734863,-73.49124908447266,67.2699966430664,1,1
0.7081800103187561,6.670289993286133,-3.5217599868774414,-7.927500247955322,-73.96375274658203,68.12750244140625,1,1
0.7655999660491943,6.679859638214111,-3.4260599613189697,-10.35124969482422,-74.49749755859375,68.94125366210938,1,1
0.7177499532699585,6.727709770202637,-3.311219930648804,-11.9087495803833,-74.99625396728516,69.86000061035156,1,1
0.6699000000953674,6.698999881744385,-3.1963798999786377,-12.626250267028809,-75.47750091552734,70.81375122070312,1,1
0.7464599609375,6.7085700035095215,-3.1198198795318604,-12.853750228881836,-75.92375183105469,71.75,1,1
0.918720006942749,6.679859638214111,-3.0049798488616943,-12.792500495910645,-76.50125122070312,72.83499908447266,1,1
0.918720006942749,6.698999881744385,-2.870999813079834,-12.416250228881836,-76.93875122070312,74.00749969482422,1,1
0.96656996011734,6.689429759979248,-2.7370200157165527,-11.725000381469728,-77.49874877929688,75.12750244140625,1,1
0.7273199558258057,6.756419658660889,-2.430779933929444,-10.508749961853027,-77.90125274658203,76.31749725341797,1,1
1.1675399541854858,6.74685001373291,-2.1915299892425537,-4.164999961853027,-78.73249816894531,80.07125091552734,1,1
1.646039962768555,6.842549800872803,-1.6747499704360962,2.528749942779541,-79.16124725341797,82.52999877929688,1,1
1.837440013885498,6.890399932861328,-1.2536699771881104,10.946249961853027,-79.61624908447266,85.06749725341797,1,1
2.181959867477417,6.899970054626465,-1.1292599439620972,14.682499885559082,-79.64250183105469,86.47624969482422,1,1
3.3782098293304443,6.660719871520996,1.234529972076416,-11.199999809265137,-66.26374816894531,102.2699966430664,1,1
4.268219947814941,7.301909923553467,3.4930498600006104,3.666249990463257,-46.45375061035156,121.5374984741211,1,1
4.478759765625,7.273200035095215,3.627029895782471,5.46875,-42.93624877929688,123.78624725341795,1,1
4.804140090942383,7.340189933776855,3.7418699264526367,5.993750095367432,-39.28749847412109,125.93875122070312,1,1
5.25393009185791,7.407179832458496,3.808859825134277,5.293749809265137,-35.42000198364258,128.02999877929688,1,1
5.7324299812316895,7.49330997467041,3.904559850692749,3.884999990463257,-31.622499465942383,130.07749938964844,1,1
6.239639759063721,7.541159629821777,4.115099906921387,2.213750123977661,-27.737499237060547,132.07249450683594,1,1
6.660719871520996,7.6847100257873535,4.2395100593566895,0.7699999809265137,-23.98374938964844,134.1374969482422,1,1
7.206209659576416,7.761269569396973,4.488329887390137,0.0700000002980232,-20.42250061035156,136.20249938964844,1,1
7.751699924468994,7.799549579620361,4.737149715423584,0.2100000083446502,-16.896249771118164,138.2587432861328,1,1
8.220629692077637,7.86653995513916,4.966829776763916,0.918749988079071,-13.571249961853027,140.09625244140625,1,1
2.670029878616333,6.861690044403076,-0.9569999575614928,17.263750076293945,-79.23124694824219,88.0425033569336,1,1
8.51729965209961,8.067509651184082,5.167799949645996,2.047499895095825,-10.053750038146973,141.85499572753906,1,1
3.502619981765747,6.813839912414551,1.5407699346542358,-14.175000190734863,-65.21375274658203,103.94125366210938,1,1
3.636600017547608,6.804269790649414,1.8565798997879028,-15.618749618530272,-63.997501373291016,105.70874786376952,1,1
3.6940197944641113,6.861690044403076,2.1628198623657227,-15.60124969482422,-62.790000915527344,107.54624938964844,1,1
3.761009931564331,6.823410034179688,2.4020700454711914,-14.350000381469728,-61.38999938964844,109.34000396728516,1,1
3.79928994178772,6.890399932861328,2.593469858169556,-12.267499923706056,-59.7712516784668,111.16000366210938,1,1
3.93326997756958,6.947819709777832,2.870999813079834,-9.467499732971191,-57.78499984741211,112.94499969482422,1,1
3.990689992904663,7.014809608459473,3.014549970626831,-6.221250057220459,-55.58000183105469,114.84375,1,1
4.067249774932861,7.148789882659912,3.177239894866944,-2.6600000858306885,-52.85874938964844,116.92625427246094,1,1
4.153379917144775,7.273200035095215,3.2825098037719727,0.6737499833106995,-49.77000045776367,119.19249725341795,1,1
2.98583984375,6.813839912414551,-0.7560299634933472,18.34000015258789,-78.52249908447266,89.60874938964844,1,1
3.0049798488616943,6.794699668884277,-0.5550599694252014,17.622499465942383,-77.47250366210938,91.1750030517578,1,1
3.0241198539733887,6.794699668884277,-0.3445200026035309,15.426250457763672,-76.125,92.7937469482422,1,1
3.043259859085083,6.765989780426025,-0.1626899987459182,11.952500343322754,-74.56749725341797,94.33374786376952,1,1
3.0049798488616943,6.756419658660889,0.0382799990475177,7.577499866485596,-72.74749755859375,95.97000122070312,1,1
3.1676700115203857,6.670289993286133,0.3158099949359894,2.8087499141693115,-70.875,97.72000122070312,1,1
3.3207898139953613,6.593729972839356,0.6220499873161316,-2.038749933242798,-69.15125274658203,99.30374908447266,1,1
3.35906982421875,6.565019607543945,0.8995800018310547,-6.886250019073486,-67.59375,100.77375030517578,1,1
8.95751953125,8.287619590759277,5.579309940338135,3.674999952316284,-2.528749942779541,145.60874938964844,1,1
9.311610221862791,8.507729530334473,5.713289737701416,3.0537500381469727,1.715000033378601,147.60374450683594,1,1
9.713549613952637,8.699130058288574,5.942969799041748,0.8575000166893005,6.107500076293945,149.5812530517578,1,1
10.220759391784668,8.708700180053711,6.086519718170166,-2.817500114440918,10.727499961853027,151.67250061035156,1,1
10.747109413146973,8.794829368591309,6.239639759063721,-8.172499656677246,15.49625015258789,153.65875244140625,1,1
11.311739921569824,8.823539733886719,6.364049911499023,-14.883749961853027,20.352500915527344,155.58375549316406,1,1
12.048629760742188,8.938380241394043,6.421469688415527,-22.54874992370605,25.34000015258789,157.5437469482422,1,1
12.852509498596191,8.89052963256836,6.536309719085693,-30.712499618530277,30.467500686645508,159.5124969482422,1,1
13.551119804382324,8.871389389038086,6.679859638214111,-38.841251373291016,35.875,161.50750732421875,1,1
20.441518783569336,9.034079551696776,9.120209693908691,-10.0625,109.76000213623048,174.24749755859375,1,1
21.38895034790039,9.120209693908691,9.254189491271973,-4.077499866485596,118.68499755859376,173.9324951171875,1,1
22.38422966003418,9.148920059204102,9.302040100097656,-0.2800000011920929,127.89875030517578,173.12750244140625,1,1
24.20252990722656,9.39773941040039,9.273329734802246,1.181249976158142,147.3675079345703,170.8350067138672,1,1
26.43233871459961,9.7039794921875,9.340319633483888,-0.3062500059604645,168.6125030517578,168.91000366210938,1,1
28.375049591064453,9.818819999694824,9.742259979248049,5.302500247955322,191.3362579345703,167.3612518310547,1,1
29.16935920715332,10.048500061035156,9.962369918823242,14.1225004196167,203.16624450683597,166.7312469482422,1,1
30.32732963562012,10.297319412231444,10.067639350891112,27.002500534057617,215.35499572753903,166.41624450683594,1,1
31.877668380737305,10.66097927093506,10.249469757080078,43.16374969482422,227.9287567138672,166.37249755859375,1,1
33.43758010864258,11.034209251403809,10.498290061950684,61.16249847412109,240.7737579345703,166.28500366210938,1,1
35.02619934082031,11.483999252319336,10.50786018371582,79.88749694824219,253.6625061035156,165.84750366210938,1,1
36.81578826904297,12.21131992340088,10.421730041503906,97.49250030517578,266.80499267578125,165.28750610351562,1,1
38.84462738037109,13.02476978302002,10.306889533996582,112.2624969482422,279.78125,164.6750030517578,1,1
41.01701736450195,13.665959358215332,10.067639350891112,121.83499908447266,286.4049987792969,163.87875366210938,1,1
43.44779968261719,14.096610069274902,9.742259979248049,124.31124877929688,286.6849975585937,162.3300018310547,1,1
45.79244995117188,14.603819847106934,9.38817024230957,119.27999877929688,286.6849975585937,159.8362579345703,1,1
47.93613052368164,14.967479705810549,8.976659774780273,107.35375213623048,286.6849975585937,156.8524932861328,1,1
50.1085205078125,15.455549240112305,8.794829368591309,90.0374984741211,286.6849975585937,153.8074951171875,1,1
52.39574813842773,15.780929565429688,8.555580139160156,69.29125213623047,286.6849975585937,150.9199981689453,1,1
54.615989685058594,16.087169647216797,8.479020118713379,47.36375045776367,286.6849975585937,148.58375549316406,1,1
56.64482879638672,16.527389526367188,8.507729530334473,27.36124992370605,286.6849975585937,146.88624572753906,1,1
58.67366790771485,17.1685791015625,8.65127944946289,12.512499809265137,286.6849975585937,146.22999572753906,1,1
60.5589599609375,18.26912879943848,8.766119956970215,5.110000133514404,286.6849975585937,147.0,1,1
62.80790710449219,19.360109329223636,9.034079551696776,6.264999866485596,286.6849975585937,149.07374572753906,1,1
66.22439575195312,20.66162872314453,9.273329734802246,14.533750534057615,286.6849975585937,152.10125732421875,1,1
69.47819519042969,22.173688888549805,9.378600120544434,27.177499771118164,286.6849975585937,155.43499755859375,1,1
71.87069702148438,24.145109176635746,9.512579917907717,40.52999877929688,286.6849975585937,158.8300018310547,1,1
74.44503021240234,26.001689910888672,9.378600120544434,50.89875030517578,286.6849975585937,161.8312530517578,1,1
77.21075439453125,27.29364013671875,9.101069450378418,54.35499954223633,286.6849975585937,163.58999633789062,1,1
80.00519561767578,28.011388778686523,8.794829368591309,49.17499923706055,286.6849975585937,162.86375427246094,1,1
82.62738037109375,28.61429977416992,8.450309753417969,36.67124938964844,286.6849975585937,158.8562469482422,1,1
100.7912368774414,26.221799850463867,-19.14957046508789,130.55874633789062,286.6849975585937,-28.061250686645508,1,1
50.1372299194336,23.159399032592773,-9.4264497756958,-100.03874969482422,286.6849975585937,-84.20999908447266,1,1
85.56536865234375,29.03537940979004,8.526869773864746,3.6575000286102295,286.6849975585937,142.34500122070312,1,1
89.66133117675781,29.934959411621094,8.086649894714355,-9.432499885559082,286.6849975585937,119.3499984741211,1,1
92.04425811767578,29.877538681030277,7.301909923553467,-7.323750019073486,286.6849975585937,106.38249969482422,1,1
95.03009796142578,29.92538833618164,6.201359748840332,11.103750228881836,286.6849975585937,91.95375061035156,1,1
98.30303955078124,30.250768661499023,4.804140090942383,39.06874847412109,286.6849975585937,76.30000305175781,1,1
102.17888641357422,30.576148986816406,2.670029878616333,70.68250274658203,286.6849975585937,59.15874862670898,1,1
106.2461395263672,30.576148986816406,0.6220499873161316,98.36750030517578,286.6849975585937,39.88249969482422,1,1
109.22240447998048,30.480449676513672,-1.7895900011062622,117.26750183105467,286.6849975585937,18.208749771118164,1,1
109.8731689453125,30.939809799194336,-4.172519683837891,127.47875213623048,286.6849975585937,-4.900000095367432,1,1
21.542070388793945,-0.354090005159378,-15.905339241027832,123.09500122070312,286.6849975585937,-224.6999969482422,1,1
2.7178800106048584,-4.459619998931885,-9.33074951171875,35.560001373291016,133.06124877929688,-123.21749877929688,1,1
55.97492980957031,28.65257835388184,-92.6375961303711,83.79875183105469,61.96749877929688,-58.42375183105469,1,1
57.46784973144531,43.78274917602539,9.857099533081056,64.33000183105469,111.4487533569336,-106.8550033569336,1,1
39.67721939086914,30.987659454345703,-19.65678024291992,-81.9000015258789,161.71749877929688,-117.92375183105467,1,1
33.50457000732422,30.67184829711914,19.74291038513184,-195.5187530517578,216.7725067138672,-127.50499725341795,1,1
40.80648040771485,35.62910842895508,2.5456199645996094,-243.8625030517578,233.72125244140625,-126.59500122070312,1,1
40.52894973754883,28.54730987548828,-0.4593600034713745,-264.3287658691406,269.1849975585937,-118.3000030517578,1,1
41.686920166015625,26.55674934387207,9.713549613952637,-260.79376220703125,279.510009765625,-107.625,1,1
44.35694885253906,26.719438552856445,-2.91884994506836,-241.22000122070312,284.98748779296875,-96.19750213623048,1,1
47.80214691162109,24.56618881225586,-4.038539886474609,-143.12374877929688,286.6849975585937,-83.8949966430664,1,1
49.99367904663086,22.59476852416992,-11.483999252319336,-71.69750213623047,286.6849975585937,-88.54125213623047,1,1
51.33347702026367,22.001428604125977,-15.30242919921875,-55.553749084472656,286.6849975585937,-95.9175033569336,1,1
50.12765884399414,21.32195854187012,-15.972329139709473,-47.82749938964844,286.6849975585937,-105.09625244140624,1,1
50.16593933105469,20.21183967590332,-18.364830017089844,-44.23125076293945,286.6849975585937,-115.1675033569336,1,1
48.86441802978516,19.130430221557617,-19.34096908569336,-41.23875045776367,286.6849975585937,-125.65875244140624,1,1
48.13710021972656,17.580089569091797,-21.360239028930664,-35.279998779296875,286.6849975585937,-136.4824981689453,1,1
46.07954788208008,16.441259384155273,-20.83388900756836,-24.596250534057617,286.6849975585937,-147.57749938964844,1,1
44.28995895385742,15.120599746704102,-21.810029983520508,-9.922499656677246,286.6849975585937,-158.71624755859375,1,1
42.08885955810547,13.828649520874023,-20.83388900756836,8.6274995803833,286.6849975585937,-169.7937469482422,1,1
20.183130264282227,-0.8900099992752075,-15.26414966583252,132.72000122070312,286.6849975585937,-221.3925018310547,1,1
19.13999938964844,-1.3685100078582764,-14.948339462280272,143.00999450683594,286.6849975585937,-217.875,1,1
18.38397026062012,-1.7513099908828735,-14.24015998840332,153.06375122070312,286.6237487792969,-214.0512542724609,1,1
17.694929122924805,-2.3733599185943604,-14.527259826660156,160.39625549316406,283.4737548828125,-210.3937530517578,1,1
16.967609405517578,-2.8805699348449707,-14.27843952178955,163.66000366210938,272.9212646484375,-206.62249755859372,1,1
16.058460235595703,-3.1389598846435547,-14.249730110168455,162.85499572753906,259.3762512207031,-202.7725067138672,1,1
15.206729888916016,-3.311219930648804,-13.713809967041016,158.9875030517578,246.1812438964844,-198.68624877929688,1,1
14.431559562683104,-3.435629844665528,-13.436279296875,152.35499572753906,233.2662506103516,-194.15374755859372,1,1
13.618109703063965,-3.607889890670776,-13.235309600830078,143.17625427246094,221.1387481689453,-189.13999938964844,1,1
2.210669994354248,-4.497900009155273,-9.33074951171875,29.846250534057617,128.6337432861328,-119.0437469482422,1,1
1.9427099227905276,-4.603169918060303,-9.158490180969238,22.636249542236328,124.25875091552734,-114.52874755859376,1,1
1.6843199729919434,-4.61274003982544,-8.95751953125,14.481249809265137,119.60375213623048,-109.88249969482422,1,1
1.550339937210083,-4.670159816741943,-8.727839469909668,5.670000076293945,115.04499816894533,-105.01750183105467,1,1
1.3398000001907349,-4.67972993850708,-8.469449996948242,-3.587500095367432,110.2062530517578,-99.87249755859376,1,1
0.8517299890518188,-4.698869705200195,-8.402460098266602,-12.766249656677246,105.27124786376952,-94.6137466430664,1,1
0.1626899987459182,-4.631879806518555,-8.27804946899414,-21.60375022888184,100.3625030517578,-89.18875122070312,1,1
-0.3062399923801422,-4.61274003982544,-8.019659996032715,-29.38249969482422,95.3312530517578,-83.87750244140625,1,1
-0.5072100162506104,-4.536180019378662,-7.847399711608887,-35.40250015258789,90.04624938964844,-78.71500396728516,1,1
-0.5550599694252014,-4.4691901206970215,-7.675139904022217,-38.963748931884766,84.45500183105469,-73.88500213623047,1,1
-5.340059757232666,-4.698869705200195,-6.325769901275635,-6.650000095367432,34.14250183105469,-49.8224983215332,1,1
-0.7081800103187561,-4.440479755401611,-7.474169731140137,-39.90874862670898,78.71500396728516,-69.63249969482422,1,1
-1.5886199474334717,-4.277790069580078,-7.12007999420166,-38.727500915527344,66.99874877929688,-63.008750915527344,1,1
-1.9714199304580688,-4.143809795379639,-6.890399932861328,-31.823749542236328,61.50374984741211,-60.47124862670898,1,1
-2.6508898735046387,-4.124670028686523,-6.85211992263794,-21.58625030517578,51.87874984741211,-56.65625,1,1
-2.9379899501800537,-4.019400119781494,-6.775559902191162,-16.2137508392334,47.897499084472656,-55.369998931884766,1,1
-3.1198198795318604,-4.182089805603027,-6.660719871520996,-11.515000343322754,44.26625061035156,-54.19750213623047,1,1
-3.3973498344421387,-4.402199745178223,-6.526740074157715,-8.583749771118164,41.04624938964844,-53.11249923706055,1,1
-3.9811198711395264,-4.478759765625,-6.574589729309082,-7.157500267028809,38.31624984741211,-52.053749084472656,1,1
-4.67972993850708,-4.603169918060303,-6.507599830627441,-6.720000267028809,36.09375,-50.977500915527344,1,1
-5.751569747924805,-4.765860080718994,-6.182219982147217,-6.886250019073486,32.17375183105469,-48.52750015258789,1,1
-5.885550022125244,-4.7275800704956055,-5.942969799041748,-7.043749809265137,30.274999618530277,-47.09249877929688,1,1
-5.952539920806885,-4.938119888305664,-5.9716796875,-7.139999866485596,28.315000534057617,-45.41249847412109,1,1
-6.124799728393555,-5.005109786987305,-5.741999626159668,-7.078750133514404,26.4950008392334,-43.64500045776367,1,1
-6.498029708862305,-5.072099685668945,-5.636729717254639,-6.833750247955322,24.56999969482422,-41.85124969482422,1,1
-6.775559902191162,-5.119949817657471,-5.42618989944458,-6.291250228881836,22.653749465942383,-40.005001068115234,1,1
-6.775559902191162,-5.05295991897583,-5.311349868774414,-5.171249866485596,20.693750381469727,-38.04500198364258,1,1
-6.756419658660889,-5.005109786987305,-5.206079959869385,-3.377500057220459,19.075000762939453,-35.94499969482422,1,1
-6.651149749755859,-4.928549766540527,-5.05295991897583,-1.1024999618530271,17.447500228881836,-33.775001525878906,1,1
-6.727709770202637,-4.88070011138916,-4.918979644775391,1.4350000619888306,15.925000190734863,-31.65749931335449,1,1
-7.675139904022217,-3.847139835357666,-4.383059978485107,1.225000023841858,-1.1987500190734863,-10.5962495803833,1,1
-8.057939529418945,-3.0911099910736084,-3.330359935760498,-16.344999313354492,-15.4350004196167,7.244999885559082,1,1
-6.890399932861328,-4.784999847412109,-4.813709735870361,3.963750123977661,14.25374984741211,-29.39125061035156,1,1
-7.062659740447998,-4.67972993850708,-4.746719837188721,6.40500020980835,12.65250015258789,-27.19499969482422,1,1
-7.053089618682861,-4.574460029602051,-4.670159816741943,8.592499732971191,11.016249656677246,-24.95499992370605,1,1
-6.957389831542969,-4.411769866943359,-4.61274003982544,10.31624984741211,9.318750381469728,-22.854999542236328,1,1
-6.842549800872803,-4.30649995803833,-4.631879806518555,11.392499923706056,7.638750076293945,-20.5625,1,1
-6.804269790649414,-4.335209846496582,-4.622309684753418,11.199999809265137,5.827499866485596,-18.488750457763672,1,1
-6.899970054626465,-4.249079704284668,-4.622309684753418,9.651249885559082,4.068749904632568,-16.458749771118164,1,1
-7.187069892883301,-4.162950038909912,-4.545749664306641,7.157500267028809,2.2925000190734863,-14.498749732971191,1,1
-7.474169731140137,-3.9715499877929688,-4.459619998931885,4.287499904632568,0.612500011920929,-12.582500457763672,1,1
-7.742129802703857,-3.789719820022583,-4.316070079803467,-1.6887500286102295,-2.940000057220459,-8.601249694824219,1,1
-7.6847100257873535,-3.7514398097991934,-4.2395100593566895,-4.585000038146973,-4.550000190734863,-6.711249828338623,1,1
-7.703849792480469,-3.674880027770996,-4.143809795379639,-7.612500190734863,-6.098750114440918,-4.829999923706055,1,1
-7.789979934692383,-3.646169900894165,-4.048110008239746,-10.395000457763672,-7.603750228881836,-2.9749999046325684,1,1
-7.904819965362549,-3.5217599868774414,-3.875849962234497,-12.643750190734863,-9.03874969482422,-1.1549999713897705,1,1
-8.010089874267578,-3.4260599613189697,-3.7322998046875,-14.25374984741211,-10.491250038146973,0.65625,1,1
-8.029230117797852,-3.339929819107056,-3.5121898651123047,-15.408750534057615,-11.952500343322754,2.476249933242798,1,1
-7.981379985809326,-3.215519905090332,-3.416489839553833,-16.1612491607666,-13.30875015258789,4.173749923706055,1,1
-7.962239742279053,-3.158099889755249,-3.435629844665528,-16.520000457763672,-14.50749969482422,5.792500019073486,1,1
-8.14406967163086,-2.98583984375,-3.1963798999786377,-15.645000457763672,-16.056249618530273,8.583749771118164,1,1
-8.2110595703125,-2.8805699348449707,-3.071969985961914,-14.36750030517578,-16.712499618530273,9.983750343322754,1,1
-8.134499549865723,-2.7753000259399414,-2.928419828414917,-12.5649995803833,-17.325000762939453,11.270000457763672,1,1
-8.096220016479492,-2.6030399799346924,-2.81358003616333,-10.552499771118164,-17.9375,12.46875,1,1
-7.952669620513916,-2.564759969711304,-2.6796000003814697,-8.574999809265137,-18.51499938964844,13.649999618530272,1,1
-7.856969833374023,-2.4786298274993896,-2.6030399799346924,-7.139999866485596,-19.040000915527344,14.734999656677246,1,1
-7.885679721832275,-2.4020700454711914,-2.555189847946167,-6.466249942779541,-19.293750762939453,15.574999809265137,1,1
-8.067509651184082,-2.3637900352478027,-2.430779933929444,-6.536250114440918,-19.46875,16.344999313354492,1,1
-8.230199813842773,-2.2776598930358887,-2.2585198879241943,-7.148749828338623,-19.62624931335449,16.940000534057617,1,1
-8.335470199584961,-2.181959867477417,-2.124539852142334,-8.233750343322754,-19.731250762939453,17.395000457763672,1,1
-7.885679721832275,-1.3110899925231934,-1.5024899244308472,6.378749847412109,-23.03874969482422,23.56374931335449,1,1
-7.952669620513916,-0.6890400052070618,-0.7464599609375,5.757500171661377,-28.174999237060547,34.501251220703125,1,1
-8.30675983428955,-2.1436798572540283,-2.1149699687957764,-9.414999961853027,-19.783750534057617,17.885000228881836,1,1
-8.30675983428955,-2.067119836807251,-1.9522799253463743,-10.53499984741211,-19.76625061035156,18.243749618530277,1,1
-8.392889976501465,-2.0479798316955566,-1.8757199048995967,-11.182499885559082,-19.792499542236328,18.549999237060547,1,1
-8.402460098266602,-1.904429912567139,-1.780019998550415,-11.00749969482422,-19.915000915527344,18.80375099182129,1,1
-8.297189712524414,-1.770449995994568,-1.7321699857711792,-9.765000343322754,-20.107500076293945,19.2762508392334,1,1
-8.249340057373047,-1.6268999576568604,-1.6364699602127075,-7.28000020980835,-20.405000686645508,20.020000457763672,1,1
-8.201489448547363,-1.5790499448776243,-1.531199932098389,-3.8762500286102295,-20.886249542236328,20.81624984741211,1,1
-8.038800239562988,-1.435499906539917,-1.5216299295425415,-0.0437499992549419,-21.542499542236328,21.700000762939453,1,1
-7.914389610290527,-1.397220015525818,-1.4833499193191528,3.526250123977661,-22.26000022888184,22.627500534057617,1,1
-7.933529853820801,-1.282379984855652,-1.5120599269866943,8.4087495803833,-23.826250076293945,24.51749992370605,1,1
-7.914389610290527,-1.234529972076416,-1.4737799167633057,9.869999885559082,-24.622499465942383,25.462499618530277,1,1
-7.617719650268555,-1.1388299465179443,-1.5024899244308472,10.744999885559082,-25.200000762939453,26.4424991607666,1,1
-7.397609710693359,-1.157969951629639,-1.349370002746582,11.077500343322754,-25.84749984741211,27.5887508392334,1,1
-7.368899822235107,-1.1005499362945557,-1.2153899669647217,10.876250267028809,-26.591249465942383,28.58625030517578,1,1
-7.589009761810303,-1.0335599184036257,-1.0909799337387085,10.1850004196167,-27.221250534057617,29.662500381469727,1,1
-7.761269569396973,-0.9378599524497986,-0.9952799677848816,9.327500343322754,-27.85124969482422,30.799999237060547,1,1
-7.914389610290527,-0.8230199813842773,-0.909150004386902,8.242500305175781,-28.16625022888184,32.033748626708984,1,1
-7.885679721832275,-0.7560299634933472,-0.803879976272583,7.105000019073486,-28.341249465942383,33.29375076293945,1,1
-8.029230117797852,-0.7081800103187561,-0.6794700026512146,4.252500057220459,-27.72875022888184,35.54249954223633,1,1
-8.105790138244629,-0.7081800103187561,-0.5933399796485901,2.572499990463257,-27.011249542236328,36.40874862670898,1,1
-8.153639793395996,-0.6507599949836731,-0.5359199643135071,0.9712499976158142,-26.0575008392334,37.09999847412109,1,1
-8.14406967163086,-0.6603299975395203,-0.4210799932479858,-0.5074999928474426,-24.989999771118164,37.834999084472656,1,1
-8.14406967163086,-0.5454899668693542,-0.37322998046875,-1.6100000143051147,-23.852500915527344,38.43000030517578,1,1
-8.019659996032715,-0.6029099822044373,-0.3062399923801422,-2.380000114440918,-22.75,39.03374862670898,1,1
-8.057939529418945,-0.7081800103187561,-0.2679599821567535,-2.765000104904175,-21.524999618530277,39.375,1,1
-8.096220016479492,-0.7943099737167358,-0.1722600013017654,-2.6600000858306885,-20.466249465942383,39.497501373291016,1,1
-8.2110595703125,-0.7273199558258057,-0.1435499936342239,-1.5924999713897705,-19.4950008392334,39.52375030517578,1,1
-8.17278003692627,-0.7368899583816528,-0.0287100002169609,0.7262499928474426,-18.943750381469727,39.57625198364258,1,1
-8.14406967163086,-0.5263499617576599,0.1531199961900711,4.488749980926514,-18.54125022888184,39.8125,1,1
-7.856969833374023,-0.4115099906921386,0.1531199961900711,15.583749771118164,-18.576250076293945,40.7400016784668,1,1
-7.770839691162109,0.0095699997618794,0.0765599980950355,28.192501068115234,-19.092500686645508,42.51625061035156,1,1
-7.474169731140137,0.37322998046875,0.0382799990475177,44.14374923706055,-19.950000762939453,46.57625198364258,1,1
-7.301909923553467,0.7273199558258057,-0.0191399995237588,50.20750045776367,-20.466249465942383,50.067501068115234,1,1
-7.215779781341553,1.1101199388504028,-0.2009699940681457,50.33000183105469,-20.518749237060547,53.51499938964844,1,1
-7.244489669799805,1.177109956741333,-0.296669989824295,47.74874877929688,-20.29125022888184,55.15999984741211,1,1
-7.244489669799805,1.1962499618530271,-0.3062399923801422,43.321250915527344,-19.83625030517578,56.411251068115234,1,1
-7.177499771118164,1.234529972076416,-0.3158099949359894,37.616249084472656,-19.311250686645508,57.40874862670898,1,1
-7.043519973754883,1.2153899669647217,-0.354090005159378,30.91374969482422,-18.795000076293945,58.07374954223633,1,1
-7.072229862213135,1.3398000001907349,-0.3253799974918365,23.86124992370605,-18.17374992370605,58.432498931884766,1,1
-7.09136962890625,1.3876500129699707,-0.3827999830245971,16.940000534057617,-17.360000610351562,58.72124862670898,1,1
-7.043519973754883,1.3685100078582764,-0.4115099906921386,10.692500114440918,-16.537500381469727,58.86125183105469,1,1
-7.062659740447998,1.3110899925231934,-0.3827999830245971,5.599999904632568,-15.56624984741211,58.834999084472656,1,1
-7.100939750671387,1.3876500129699707,-0.2296800017356872,2.353749990463257,-14.761250495910645,58.80875015258789,1,1
-7.072229862213135,1.5790499448776243,-0.1052699983119964,1.09375,-14.096250534057615,58.966251373291016,1,1
-7.033949851989746,1.6364699602127075,0.0765599980950355,2.0037500858306885,-13.545000076293944,59.44750213623047,1,1
-6.957389831542969,1.7608799934387207,0.1148400008678436,5.005000114440918,-13.387499809265137,60.165000915527344,1,1
-6.995669841766357,1.7991600036621094,0.1818299889564514,9.47624969482422,-13.37874984741211,61.04875183105469,1,1
-7.033949851989746,1.8757199048995967,0.3253799974918365,14.9975004196167,-13.510000228881836,62.02000045776367,1,1
-6.009959697723389,4.086390018463135,-0.2105399966239929,68.76625061035156,-26.880001068115234,73.74500274658203,1,1
-7.081799983978272,5.273069858551025,1.11968994140625,12.311249732971191,-37.15250015258789,71.94249725341797,1,1
-6.995669841766357,1.9905599355697632,0.5167799592018127,21.262500762939453,-13.833749771118164,63.01750183105469,1,1
-6.986099720001221,2.1915299892425537,0.6699000000953674,28.21000099182129,-14.595000267028809,64.13749694824219,1,1
-6.9669599533081055,2.5743298530578613,0.6603299975395203,36.119998931884766,-15.6537504196167,65.46749877929688,1,1
-7.024379730224609,3.014549970626831,0.5263499617576599,44.782501220703125,-16.756250381469727,66.95500183105469,1,1
-7.12007999420166,3.3207898139953613,0.4976399838924408,53.52375030517578,-17.86750030517578,68.71375274658203,1,1
-7.072229862213135,3.502619981765747,0.4880699813365936,61.11000061035156,-19.372499465942383,70.40250396728516,1,1
-6.928679943084717,3.646169900894165,0.37322998046875,66.8062515258789,-21.21875,71.76750183105469,1,1
-6.555449962615967,3.761009931564331,0.2201099991798401,70.1050033569336,-23.292499542236328,72.81749725341797,1,1
-6.258780002593994,3.9524099826812735,0.0,70.875,-25.19124984741211,73.43875122070312,1,1
-5.895119667053223,6.37362003326416,2.5360498428344727,42.97124862670898,-49.28874969482422,86.9749984741211,1,1
-5.952539920806885,3.9236998558044434,-0.7464599609375,55.903751373291016,-29.268749237060547,73.37750244140625,1,1
-5.9716796875,3.818429946899414,-0.9378599524497986,35.01750183105469,-29.54874992370605,70.9887466430664,1,1
-6.737279891967773,4.048110008239746,-0.5263499617576599,14.350000381469728,-29.17250061035156,68.17124938964844,1,1
-6.976529598236084,4.392630100250244,0.0574200004339218,6.632500171661377,-29.47875022888184,66.94625091552734,1,1
-6.794699668884277,4.430910110473633,0.4019399881362915,-1.6362500190734863,-31.456249237060547,66.9375,1,1
-6.775559902191162,4.450049877166748,0.5167799592018127,-1.680000066757202,-33.626251220703125,67.71624755859375,1,1
-6.9669599533081055,4.622309684753418,0.6507599949836731,0.4550000131130218,-34.6150016784668,68.34625244140625,1,1
-7.139219760894775,4.85198974609375,0.803879976272583,3.71875,-35.48125076293945,69.19499969482422,1,1
-7.09136962890625,5.129519939422607,0.9857099652290344,7.901249885559082,-36.2599983215332,70.41999816894531,1,1
-7.12007999420166,5.454899787902832,1.1962499618530271,16.126249313354492,-38.036251068115234,73.4124984741211,1,1
-7.09136962890625,5.608019828796387,1.1866799592971802,18.34000015258789,-38.8849983215332,74.9262466430664,1,1
-6.9669599533081055,5.713289737701416,1.0718399286270142,18.19124984741211,-39.63750076293945,76.40499877929688,1,1
-6.74685001373291,5.837699890136719,0.9569999575614928,15.758749961853027,-40.06624984741211,77.69125366210938,1,1
-6.517169952392578,5.828129768371582,0.8421599864959717,11.208749771118164,-40.29375076293945,78.8550033569336,1,1
-6.306629657745361,5.847270011901856,0.8134499788284302,4.987500190734863,-40.21500015258789,79.82624816894531,1,1
-6.2204999923706055,5.952539920806885,0.8230199813842773,-2.257499933242798,-40.11000061035156,80.55249786376953,1,1
-6.124799728393555,5.942969799041748,0.8421599864959717,-10.036250114440918,-39.92625045776367,81.11250305175781,1,1
-6.048239707946777,5.856839656829834,0.8804399967193604,-17.6924991607666,-39.83000183105469,81.66374969482422,1,1
-5.885550022125244,6.54587984085083,2.4499199390411377,54.0837516784668,-49.33250045776367,88.0687484741211,1,1
-5.828129768371582,6.670289993286133,2.354219913482666,63.4900016784668,-49.20125198364258,89.32875061035156,1,1
-5.608019828796387,6.775559902191162,2.268090009689331,70.70874786376953,-48.84249877929688,90.57125091552734,1,1
-5.2252197265625,6.890399932861328,2.0862598419189453,75.27625274658203,-48.30875015258789,91.5687484741211,1,1
-4.450049877166748,7.024379730224609,1.93313992023468,76.30875396728516,-46.79500198364258,93.03874969482422,1,1
-4.028969764709473,7.301909923553467,1.7321699857711792,68.12750244140625,-44.616249084472656,93.57250213623048,1,1
-4.028969764709473,7.474169731140137,1.7130299806594849,53.83000183105469,-42.376251220703125,93.70375061035156,1,1
-4.143809795379639,7.6847100257873535,1.7321699857711792,36.68000030517578,-40.32875061035156,93.35375213623048,1,1
-4.067249774932861,7.809119701385498,1.6268999576568604,27.74625015258789,-39.39250183105469,92.76750183105467,1,1
-3.9715499877929688,7.780409812927246,1.646039962768555,10.237500190734863,-37.091251373291016,92.3125,1,1
-2.0192699432373047,8.000519752502441,1.5790499448776243,10.001250267028809,-36.23374938964844,89.53874969482422,1,1
-3.9524099826812735,7.789979934692383,1.6938899755477903,2.091249942779541,-36.102500915527344,91.84874725341795,1,1
-3.904559850692749,7.780409812927246,1.6268999576568604,-5.355000019073486,-34.991249084472656,91.29750061035156,1,1
-3.818429946899414,7.876109600067139,1.5407699346542358,-11.646249771118164,-34.0724983215332,90.8862533569336,1,1
-3.7514398097991934,7.933529853820801,1.5120599269866943,-16.940000534057617,-33.162498474121094,90.63249969482422,1,1
-3.4069199562072754,7.86653995513916,1.454639911651611,-24.0625,-31.701250076293945,90.37875366210938,1,1
-3.1389598846435547,7.895249843597412,1.4163600206375122,-25.821250915527344,-31.377500534057617,89.97624969482422,1,1
-2.6604599952697754,7.981379985809326,1.3398000001907349,-21.06999969482422,-32.025001525878906,89.70500183105469,1,1
-2.076689958572388,8.000519752502441,1.3110899925231934,-10.885000228881836,-33.18000030517578,89.83625030517578,1,1
-1.8087300062179563,8.019659996032715,1.4642099142074585,-4.375,-34.01124954223633,89.75749969482422,1,1
-2.354219913482666,8.038800239562988,1.5694799423217771,16.896249771118164,-37.747501373291016,89.08374786376953,1,1
-2.6030399799346924,8.096220016479492,1.6364699602127075,22.881250381469727,-39.313751220703125,88.44499969482422,1,1
-2.6317498683929443,8.124929428100586,1.5790499448776243,27.59749984741211,-40.661251068115234,87.59625244140625,1,1
-2.5456199645996094,8.153639793395996,1.406790018081665,30.887500762939453,-41.66749954223633,86.60749816894531,1,1
-2.4881999492645264,8.201489448547363,1.3398000001907349,32.59375,-42.39374923706055,85.4262466430664,1,1
-2.5360498428344727,8.23976993560791,1.3015199899673462,32.98749923706055,-42.665000915527344,84.24500274658203,1,1
-2.6508898735046387,8.316329956054688,1.2249599695205688,32.30500030517578,-42.72624969482422,83.09874725341797,1,1
-2.6508898735046387,8.469449996948242,1.1962499618530271,30.756250381469727,-42.58625030517578,82.11000061035156,1,1
-2.6317498683929443,8.536439895629883,1.1388299465179443,28.79624938964844,-42.2712516784668,81.30500030517578,1,1
-2.564759969711304,8.603429794311523,1.0909799337387085,26.61750030517578,-41.73749923706055,80.6137466430664,1,1
-2.0479798316955566,9.014939308166504,1.5981899499893188,31.0887508392334,-44.69499969482422,81.4887466430664,1,1
-2.4594898223876958,8.622570037841797,1.11968994140625,24.701250076293945,-41.20375061035156,80.12374877929688,1,1
-2.411639928817749,8.6799898147583,1.1866799592971802,23.283750534057617,-40.90625,79.7562484741211,1,1
-2.335079908370972,8.718269348144531,1.2058199644088743,22.47875022888184,-40.78374862670898,79.57250213623047,1,1
-2.30637001991272,8.775690078735352,1.282379984855652,22.25124931335449,-40.72249984741211,79.39749908447266,1,1
-2.2393798828125,8.833109855651855,1.3589400053024292,22.706249237060547,-41.04624938964844,79.41500091552734,1,1
-2.1915299892425537,8.813969612121582,1.3302299976348877,23.677499771118164,-41.42250061035156,79.58125305175781,1,1
-2.0479798316955566,8.89052963256836,1.4163600206375122,25.12125015258789,-41.9474983215332,79.89624786376953,1,1
-1.8948599100112915,8.89052963256836,1.4450699090957642,26.89750099182129,-42.69124984741211,80.26374816894531,1,1
-1.93313992023468,8.95751953125,1.5120599269866943,28.997499465942383,-43.688751220703125,80.81500244140625,1,1
-2.038409948348999,9.02450942993164,1.6364699602127075,33.17124938964844,-45.90250015258789,82.04000091552734,1,1
-1.9522799253463743,9.043649673461914,1.6938899755477903,34.93000030517578,-47.16249847412109,82.5824966430664,1,1
-1.7991600036621094,9.02450942993164,1.8087300062179563,36.286251068115234,-48.62374877929688,82.9937515258789,1,1
-1.6843199729919434,9.101069450378418,1.8757199048995967,37.50249862670898,-50.1462516784668,83.37000274658203,1,1
-1.7034599781036377,9.22548007965088,1.904429912567139,38.71875,-51.70375061035156,83.6500015258789,1,1
-1.7991600036621094,9.4264497756958,1.980989933013916,39.94374847412109,-53.20000076293945,84.14875030517578,1,1
-1.9427099227905276,9.617849349975586,1.9714199304580688,40.897499084472656,-54.42499923706055,84.84874725341797,1,1
-2.095829963684082,9.751830101013184,1.9427099227905276,41.58000183105469,-55.37874984741211,85.76750183105469,1,1
-2.153249979019165,9.924089431762695,1.9139999151229856,41.431251525878906,-55.81624984741211,86.69499969482422,1,1
-2.1149699687957764,10.07720947265625,1.8852899074554443,40.48625183105469,-55.86000061035156,87.64875030517578,1,1
-2.0192699432373047,10.182479858398438,1.847009897232056,38.841251373291016,-55.431251525878906,88.6812515258789,1,1
-1.904429912567139,10.31645965576172,1.7991600036621094,36.505001068115234,-54.57374954223633,89.75749969482422,1,1
-1.8565798997879028,10.450439453125,1.7417399883270264,33.60874938964844,-53.33124923706055,90.81625366210938,1,1
-1.8757199048995967,10.555709838867188,1.7034599781036377,30.17875099182129,-51.747501373291016,91.84000396728516,1,1
-1.93313992023468,10.593989372253418,1.6938899755477903,26.02250099182129,-50.119998931884766,92.82875061035156,1,1
-1.8852899074554443,10.641839981079102,1.7321699857711792,21.323749542236328,-48.36125183105469,93.6687469482422,1,1
-1.770449995994568,10.603559494018556,1.7034599781036377,16.170000076293945,-46.83000183105469,94.28125,1,1
-1.531199932098389,10.632269859313965,1.7321699857711792,10.75374984741211,-45.526248931884766,94.70124816894533,1,1
-1.2632399797439575,10.699259757995604,1.646039962768555,5.547500133514404,-44.55500030517578,95.1999969482422,1,1
-1.1101199388504028,10.82366943359375,1.665179967880249,0.8575000166893005,-44.09999847412109,95.71624755859376,1,1
0.2201099991798401,11.417009353637695,2.3159399032592773,2.458750009536743,-64.97750091552734,100.56375122070312,1,1
0.5263499617576599,11.761529922485352,2.2872300148010254,6.711249828338623,-66.05374908447266,99.82875061035156,1,1
0.5550599694252014,11.885939598083496,2.3733599185943604,10.806249618530272,-66.68375396728516,99.45249938964844,1,1
0.4976399838924408,11.857229232788086,2.354219913482666,14.50749969482422,-67.13874816894531,98.90125274658205,1,1
0.5933399796485901,11.828519821166992,2.354219913482666,17.412500381469727,-67.27874755859375,98.34124755859376,1,1
0.6794700026512146,11.895509719848633,2.354219913482666,19.573749542236328,-67.18250274658203,97.55374908447266,1,1
0.803879976272583,12.00078010559082,2.296799898147583,20.877500534057617,-66.90250396728516,96.8625030517578,1,1
0.8421599864959717,12.029489517211914,2.2872300148010254,21.280000686645508,-66.56999969482422,96.17124938964844,1,1
0.9282899498939514,12.019919395446776,2.4020700454711914,20.74625015258789,-66.29875183105469,95.31375122070312,1,1
1.1292599439620972,11.97206974029541,2.411639928817749,19.28499984741211,-66.25499725341797,94.31625366210938,1,1
-0.8708699941635132,10.871520042419434,1.722599983215332,-3.1762499809265137,-44.04750061035156,96.32875061035156,1,1
-0.7177499532699585,10.928939819335938,1.7895900011062622,-6.702499866485596,-44.52000045776367,96.90625,1,1
-0.5550599694252014,11.015069961547852,1.837440013885498,-9.852499961853027,-45.526248931884766,97.44000244140624,1,1
-0.3827999830245971,11.053349494934082,1.8852899074554443,-12.582500457763672,-46.9787483215332,97.99124908447266,1,1
-0.0956999957561492,11.139479637145996,1.904429912567139,-14.761250495910645,-48.81624984741211,98.55999755859376,1,1
0.2201099991798401,11.273459434509276,1.9714199304580688,-16.073749542236328,-50.872501373291016,99.08499908447266,1,1
0.7081800103187561,11.493569374084473,2.17238998413086,-15.050000190734863,-55.54500198364258,100.0999984741211,1,1
0.5550599694252014,11.646689414978027,2.210669994354248,-10.4037504196167,-60.25249862670898,100.54624938964844,1,1
0.0765599980950355,11.29259967803955,2.756160020828247,-1.8637499809265137,-63.376251220703125,101.26374816894533,1,1
1.3110899925231934,11.962499618530272,2.4786298274993896,16.782499313354492,-66.43000030517578,93.0737533569336,1,1
1.5024899244308472,11.962499618530272,2.4786298274993896,13.85124969482422,-66.74500274658203,91.62125396728516,1,1
1.7034599781036377,11.943359375,2.6221799850463867,11.19124984741211,-67.36624908447266,90.07250213623048,1,1
1.818300008773804,12.058199882507324,2.698740005493164,9.397500038146973,-68.23249816894531,88.4887466430664,1,1
2.0862598419189453,12.287879943847656,2.842289924621582,8.881250381469727,-69.33499908447266,87.01875305175781,1,1
2.1341099739074707,12.469709396362305,2.8518600463867188,10.78874969482422,-71.46125030517578,84.13999938964844,1,1
2.124539852142334,12.421859741210938,2.9666998386383057,12.967499732971191,-72.42375183105469,82.63500213623047,1,1
2.10539984703064,12.546269416809082,2.899709939956665,15.426250457763672,-73.29875183105469,80.98999786376953,1,1
2.0479798316955566,12.632399559020996,2.957129955291748,18.12125015258789,-73.9375,79.23124694824219,1,1
2.067119836807251,12.670680046081545,2.98583984375,20.92124938964844,-74.36624908447266,77.41999816894531,1,1
2.0288400650024414,12.71852970123291,2.9954099655151367,23.852500915527344,-74.64624786376953,75.76625061035156,1,1
1.9905599355697632,12.823800086975098,3.100679874420166,29.636249542236328,-74.89125061035156,72.48500061035156,1,1
2.9762699604034424,12.75680923461914,3.473909854888916,14.9975004196167,-70.9625015258789,54.188751220703125,1,1
2.067119836807251,12.881219863891602,3.0911099910736084,33.83625030517578,-74.78624725341797,69.49250030517578,1,1
2.153249979019165,12.909929275512695,3.0623998641967773,35.008750915527344,-74.67250061035156,68.1187515258789,1,1
2.2010998725891118,12.871649742126465,3.1198198795318604,35.525001525878906,-74.00749969482422,65.74749755859375,1,1
2.210669994354248,12.881219863891602,3.1198198795318604,34.76375198364258,-73.68375396728516,64.68000030517578,1,1
2.4786298274993896,12.804659843444824,3.158099889755249,31.46500015258789,-73.15875244140625,62.553749084472656,1,1
2.7178800106048584,12.75680923461914,3.2346599102020264,26.26749992370605,-72.72125244140625,60.28749847412109,1,1
2.8327200412750244,12.74724006652832,3.301649808883667,20.71999931335449,-72.16999816894531,57.89875030517578,1,1
2.899709939956665,12.71852970123291,3.4069199562072754,16.362499237060547,-71.38249969482422,55.3962516784668,1,1
2.9666998386383057,12.699389457702637,3.569609880447388,14.18375015258789,-70.47250366210938,53.11249923706055,1,1
2.9475598335266118,12.661109924316406,3.607889890670776,13.921250343322754,-69.94750213623047,52.13249969482422,1,1
2.9379899501800537,12.641969680786133,3.607889890670776,14.061249732971191,-69.30000305175781,51.29249954223633,1,1
2.81358003616333,12.632399559020996,3.703589916229248,14.411250114440918,-68.60874938964844,50.522499084472656,1,1
2.7083098888397217,12.670680046081545,3.7227299213409424,15.032500267028809,-67.9175033569336,49.89250183105469,1,1
2.6508898735046387,12.62282943725586,3.7801499366760254,15.6537504196167,-67.14749908447266,49.40250015258789,1,1
2.6030399799346924,12.65153980255127,3.7131597995758057,16.274999618530273,-66.29875183105469,48.991249084472656,1,1
2.689169883728028,12.670680046081545,3.703589916229248,16.633750915527344,-65.33625030517578,48.65874862670898,1,1
2.7083098888397217,12.6898193359375,3.6557400226593018,16.69499969482422,-64.2074966430664,48.40499877929688,1,1
2.7753000259399414,12.728099822998049,3.607889890670776,16.511249542236328,-62.89500045776367,48.29999923706055,1,1
3.3782098293304443,12.584549903869627,3.3973498344421387,-1.2687499523162842,-49.47249984741211,41.59749984741211,1,1
2.823149919509888,12.795089721679688,3.607889890670776,15.916250228881836,-61.51250076293945,48.20375061035156,1,1
2.81358003616333,12.775949478149414,3.5504698753356934,14.673749923706056,-59.9900016784668,48.03749847412109,1,1
2.8327200412750244,12.795089721679688,3.502619981765747,12.880000114440918,-58.47624969482422,47.64374923706055,1,1
2.8327200412750244,12.766379356384276,3.4547698497772217,10.68375015258789,-56.883750915527344,47.12749862670898,1,1
2.9379899501800537,12.795089721679688,3.4260599613189697,8.53125,-55.42250061035156,46.51499938964844,1,1
3.014549970626831,12.728099822998049,3.4643399715423584,6.413750171661377,-54.005001068115234,45.81499862670898,1,1
3.2059500217437744,12.661109924316406,3.4260599613189697,4.31374979019165,-52.76250076293945,44.782501220703125,1,1
3.311219930648804,12.65153980255127,3.416489839553833,2.240000009536743,-51.52000045776367,43.723751068115234,1,1
3.3494999408721924,12.641969680786133,3.3686399459838867,0.3675000071525574,-50.46125030517578,42.67375183105469,1,1
3.5121898651123047,12.37401008605957,3.05282998085022,2.476249933242798,-42.54249954223633,31.508750915527344,1,1
3.311219930648804,12.565409660339355,3.3973498344421387,-2.528749942779541,-48.66749954223633,40.5212516784668,1,1
3.330359935760498,12.527130126953123,3.35906982421875,-3.3862500190734863,-47.94124984741211,39.44499969482422,1,1
3.339929819107056,12.460139274597168,3.339929819107056,-3.990000009536743,-47.32875061035156,38.368751525878906,1,1
3.35906982421875,12.450570106506348,3.2633700370788574,-4.173749923706055,-46.62874984741211,37.38875198364258,1,1
3.3494999408721924,12.421859741210938,3.2250900268554688,-4.208750247955322,-45.946250915527344,36.35625076293945,1,1
3.445199966430664,12.34529972076416,3.1963798999786377,-3.9375,-45.32500076293945,35.39374923706055,1,1
3.416489839553833,12.354869842529297,3.2346599102020264,-3.1937499046325684,-44.59000015258789,34.466251373291016,1,1
3.5121898651123047,12.31658935546875,3.1485300064086914,-1.7587499618530271,-43.98625183105469,33.477500915527344,1,1
3.4930498600006104,12.393149375915527,3.1102499961853027,0.2012500017881393,-43.2599983215332,32.436248779296875,1,1
3.5121898651123047,12.27830982208252,2.9379899501800537,4.882500171661377,-41.78125,30.511249542236328,1,1
3.4260599613189697,12.220890045166016,2.794440031051636,8.898750305175781,-40.153751373291016,28.087499618530277,1,1
3.4547698497772217,12.21131992340088,2.81358003616333,10.359999656677246,-39.383750915527344,26.670000076293945,1,1
3.435629844665528,12.144330024719238,2.727449893951416,11.418749809265137,-38.56999969482422,25.15625,1,1
3.502619981765747,12.086909294128418,2.61260986328125,11.803750038146973,-37.80875015258789,23.61625099182129,1,1
3.569609880447388,12.096479415893556,2.5360498428344727,11.66374969482422,-36.93375015258789,21.927499771118164,1,1
3.56003999710083,11.962499618530272,2.5360498428344727,11.296250343322754,-36.15499877929688,20.36124992370605,1,1
3.5217599868774414,11.838089942932127,2.430779933929444,10.307499885559082,-35.376251220703125,18.61124992370605,1,1
3.4930498600006104,11.73281955718994,2.3924999237060547,9.161250114440918,-34.70249938964844,16.791250228881836,1,1
3.502619981765747,11.723249435424805,2.296799898147583,8.015000343322754,-33.94124984741211,15.067500114440918,1,1
3.818429946899414,11.053349494934082,2.1436798572540283,14.980000495910645,-30.33625030517578,3.569999933242798,1,1
3.416489839553833,11.694540023803713,2.296799898147583,7.078750133514404,-33.223751068115234,13.431249618530272,1,1
3.435629844665528,11.59883975982666,2.268090009689331,6.369999885559082,-32.61125183105469,11.99625015258789,1,1
3.56003999710083,11.493569374084473,2.2202398777008057,5.993750095367432,-32.07749938964844,10.6225004196167,1,1
3.6940197944641113,11.388299942016602,2.17238998413086,5.827499866485596,-31.56999969482422,9.318750381469728,1,1
3.837569952011109,11.369159698486328,2.1436798572540283,6.054999828338623,-31.158750534057617,8.111249923706055,1,1
3.9236998558044434,11.302169799804688,2.1149699687957764,6.789999961853027,-30.8700008392334,7.008749961853027,1,1
3.9236998558044434,11.1968994140625,2.1341099739074707,8.09375,-30.56374931335449,6.054999828338623,1,1
3.837569952011109,11.187329292297363,2.2298099994659424,9.931249618530272,-30.520000457763672,5.18874979019165,1,1
3.885419845581055,11.12990951538086,2.1436798572540283,12.355000495910645,-30.450000762939453,4.322500228881836,1,1
3.416489839553833,10.526999473571776,1.6938899755477903,26.363750457763672,-28.01749992370605,-1.846250057220459,1,1
3.435629844665528,10.201620101928713,1.5407699346542358,7.901249885559082,-28.061250686645508,0.1924999952316284,1,1
3.761009931564331,11.043779373168944,2.1149699687957764,17.666250228881836,-30.318750381469727,2.8350000381469727,1,1
3.674880027770996,10.976789474487305,2.153249979019165,20.29125022888184,-30.1875,2.161250114440918,1,1
3.4930498600006104,10.871520042419434,2.038409948348999,22.76749992370605,-29.9950008392334,1.5225000381469729,1,1
3.3973498344421387,10.861949920654297,2.009700059890747,24.9637508392334,-29.662500381469727,0.9449999928474426,1,1
3.3686399459838867,10.833239555358888,1.9427099227905276,26.731250762939453,-29.364999771118164,0.3937500119209289,1,1
3.3686399459838867,10.747109413146973,1.8948599100112915,27.85124969482422,-28.979999542236328,-0.1400000005960464,1,1
3.3782098293304443,10.66097927093506,1.8565798997879028,28.42875099182129,-28.717500686645508,-0.6037499904632568,1,1
3.4069199562072754,10.622699737548828,1.8278700113296509,28.306249618530277,-28.42875099182129,-1.0850000381469729,1,1
3.4260599613189697,10.555709838867188,1.7513099908828735,27.614999771118164,-28.21875,-1.4612499475479126,1,1
3.3494999408721924,10.498290061950684,1.6173299551010132,24.73624992370605,-27.763750076293945,-2.1787500381469727,1,1
3.301649808883667,10.488719940185549,1.5981899499893188,22.854999542236328,-27.684999465942383,-2.283750057220459,1,1
3.2920799255371094,10.431300163269045,1.5599099397659302,20.676250457763672,-27.64125061035156,-2.266249895095825,1,1
3.435629844665528,10.41215991973877,1.550339937210083,18.497499465942383,-27.606250762939453,-2.1524999141693115,1,1
3.5791800022125244,10.373879432678224,1.5216299295425415,16.344999313354492,-27.5625,-1.951249957084656,1,1
3.607889890670776,10.364309310913086,1.5407699346542358,14.3412504196167,-27.649999618530277,-1.6012500524520874,1,1
3.588749885559082,10.345170021057127,1.550339937210083,12.53874969482422,-27.755001068115234,-1.2337499856948853,1,1
3.540899991989136,10.278180122375488,1.492919921875,10.920000076293944,-27.92124938964844,-0.7875000238418579,1,1
3.473909854888916,10.268610000610352,1.5120599269866943,9.380000114440918,-28.03499984741211,-0.2887499928474426,1,1
3.3973498344421387,10.1729097366333,1.4737799167633057,6.40500020980835,-28.13999938964844,0.65625,1,1
3.4069199562072754,10.125060081481934,1.531199932098389,4.96999979019165,-28.131250381469727,1.1725000143051147,1,1
3.3973498344421387,10.07720947265625,1.4642099142074585,3.543750047683716,-28.0,1.6887500286102295,1,1
3.311219930648804,10.096349716186523,1.4737799167633057,2.309999942779541,-27.877500534057617,2.3187499046325684,1,1
3.2250900268554688,9.981510162353516,1.492919921875,1.2949999570846558,-27.825000762939453,2.870000123977661,1,1
3.1963798999786377,10.01021957397461,1.454639911651611,0.3762499988079071,-27.8075008392334,3.377500057220459,1,1
3.2633700370788574,9.943229675292969,1.4163600206375122,-0.5249999761581421,-27.763750076293945,3.867500066757202,1,1
3.2346599102020264,9.91451930999756,1.4163600206375122,-1.1725000143051147,-27.70249938964844,4.445000171661377,1,1
3.2250900268554688,9.866669654846191,1.397220015525818,-1.627500057220459,-27.57999992370605,5.013750076293945,1,1
3.588749885559082,10.125060081481934,1.1483999490737915,8.6537504196167,-23.84375,5.914999961853027,1,1
3.6940197944641113,10.201620101928713,1.11968994140625,11.943750381469728,-24.045000076293945,5.731249809265137,1,1
3.7705798149108887,10.220759391784668,1.0718399286270142,14.988750457763672,-24.43000030517578,5.494999885559082,1,1
3.818429946899414,10.211189270019531,1.0144200325012207,17.53499984741211,-24.762500762939453,5.223750114440918,1,1
3.808859825134277,10.278180122375488,0.9857099652290344,19.582500457763672,-25.024999618530277,4.926249980926514,1,1
3.7801499366760254,10.278180122375488,0.9857099652290344,21.07875061035156,-25.36625099182129,4.602499961853027,1,1
3.7322998046875,10.230329513549805,0.8995800018310547,21.927499771118164,-25.690000534057617,4.287499904632568,1,1
3.7227299213409424,10.268610000610352,0.8134499788284302,21.82250022888184,-25.74250030517578,3.797500133514404,1,1
3.6940197944641113,10.23989963531494,0.7560299634933472,21.18375015258789,-25.821250915527344,3.3162500858306885,1,1
3.636600017547608,10.249469757080078,0.7081800103187561,18.112499237060547,-25.549999237060547,2.362499952316284,1,1
3.636600017547608,10.249469757080078,0.6986100077629089,16.00374984741211,-25.23500061035156,1.9075000286102293,1,1
3.5983200073242188,10.192049980163574,0.6029099822044373,11.217499732971191,-24.63999938964844,0.9012500047683716,1,1
3.588749885559082,10.13463020324707,0.6603299975395203,6.737500190734863,-24.018749237060547,0.2800000011920929,1,1
3.607889890670776,10.14419937133789,0.5837699770927429,3.762500047683716,-23.502500534057617,0.0962499976158142,1,1
3.6653099060058594,10.086779594421388,0.6220499873161316,2.9487500190734863,-23.33625030517578,0.1137500032782554,1,1
3.7322998046875,10.000649452209473,0.6316199898719788,2.5112500190734863,-23.20499992370605,0.2100000083446502,1,1
3.7322998046875,10.01021957397461,0.6124799847602844,2.458750009536743,-23.100000381469727,0.3499999940395355,1,1
3.7514398097991934,10.000649452209473,0.6411899924278259,2.791249990463257,-23.11750030517578,0.6212499737739563,1,1
3.6940197944641113,10.000649452209473,0.6699000000953674,3.456249952316284,-23.12624931335449,0.9100000262260436,1,1
3.674880027770996,9.97194004058838,0.6507599949836731,4.112500190734863,-23.239999771118164,1.190000057220459,1,1
3.703589916229248,9.904950141906738,0.6603299975395203,4.768750190734863,-23.458749771118164,1.4350000619888306,1,1
3.6940197944641113,9.91451930999756,0.6316199898719788,5.110000133514404,-23.55500030517578,1.496250033378601,1,1
3.703589916229248,9.885809898376465,0.6029099822044373,5.136250019073486,-23.625,1.53125,1,1
3.6844499111175537,9.857099533081056,0.5550599694252014,4.917500019073486,-23.70375061035156,1.5225000381469729,1,1
3.636600017547608,9.780539512634276,0.5454899668693542,4.497499942779541,-23.668750762939453,1.53125,1,1
3.627029895782471,9.818819999694824,0.4784999787807464,3.990000009536743,-23.738750457763672,1.53125,1,1
3.607889890670776,9.742259979248049,0.4880699813365936,3.430000066757202,-23.80875015258789,1.4175000190734863,1,1
3.6653099060058594,9.723119735717772,0.4497900009155273,2.8612499237060547,-23.76499938964844,1.2512500286102295,1,1
3.703589916229248,9.684840202331545,0.4402199983596802,2.3187499046325684,-23.686250686645508,1.09375,1,1
3.703589916229248,9.617849349975586,0.4115099906921386,1.7237499952316284,-23.5987491607666,0.8837500214576721,1,1
3.703589916229248,9.617849349975586,0.4019399881362915,1.2599999904632568,-23.61625099182129,0.6299999952316284,1,1
3.6940197944641113,9.550859451293944,0.3827999830245971,0.9537500143051147,-23.502500534057617,0.4637500047683716,1,1
3.6557400226593018,9.56999969482422,0.2870999872684479,0.9275000095367432,-23.493749618530277,0.3587500154972076,1,1
3.627029895782471,9.512579917907717,0.37322998046875,1.09375,-23.35375022888184,0.332500010728836,1,1
3.607889890670776,9.474299430847168,0.3349500000476837,1.496250033378601,-23.25749969482422,0.3237499892711639,1,1
3.6557400226593018,9.455160140991213,0.296669989824295,2.0999999046325684,-23.15250015258789,0.3849999904632568,1,1
3.617460012435913,9.436019897460938,0.296669989824295,2.966249942779541,-23.100000381469727,0.3499999940395355,1,1
3.6940197944641113,9.38817024230957,0.296669989824295,4.068749904632568,-23.15250015258789,0.3062500059604645,1,1
3.703589916229248,9.38817024230957,0.3062399923801422,5.223750114440918,-23.2137508392334,0.2975000143051147,1,1
3.7514398097991934,9.38817024230957,0.296669989824295,6.728750228881836,-23.309999465942383,0.3762499988079071,1,1
3.7322998046875,9.369029998779297,0.3062399923801422,8.27750015258789,-23.467500686645508,0.5337499976158142,1,1
3.6653099060058594,9.33074951171875,0.2392499893903732,9.7212495803833,-23.493749618530277,0.6825000047683716,1,1
3.703589916229248,9.302040100097656,0.2296800017356872,12.5649995803833,-23.8700008392334,0.8837500214576721,1,1
3.7131597995758057,9.302040100097656,0.2201099991798401,13.693750381469728,-23.91374969482422,0.9362500309944152,1,1
3.674880027770996,9.311610221862791,0.2009699940681457,14.647500038146973,-23.940000534057617,1.058750033378601,1,1
3.703589916229248,9.35945987701416,0.1435499936342239,15.452500343322754,-24.01000022888184,1.1462500095367432,1,1
3.674880027770996,9.349889755249023,0.0956999957561492,16.204999923706055,-24.01000022888184,1.3650000095367432,1,1
3.6940197944641113,9.349889755249023,0.0669899955391883,16.59000015258789,-23.940000534057617,1.5575000047683716,1,1
3.6940197944641113,9.35945987701416,0.0669899955391883,16.511249542236328,-23.87874984741211,1.7762500047683716,1,1
3.6557400226593018,9.35945987701416,-0.0095699997618794,16.082500457763672,-23.852500915527344,1.9774999618530276,1,1
3.6844499111175537,9.311610221862791,-0.0095699997618794,15.233750343322754,-23.756250381469727,2.134999990463257,1,1
3.646169900894165,9.340319633483888,-0.0574200004339218,13.859999656677246,-23.537500381469727,2.353749990463257,1,1
3.607889890670776,9.311610221862791,-0.0095699997618794,12.425000190734863,-23.292499542236328,2.6162500381469727,1,1
3.540899991989136,9.311610221862791,-0.1244099959731102,10.893750190734863,-23.03874969482422,2.992500066757202,1,1
3.607889890670776,9.35945987701416,-0.0956999957561492,7.761250019073486,-22.487499237060547,3.954999923706055,1,1
3.674880027770996,9.321179389953612,-0.1531199961900711,7.402500152587891,-22.52250099182129,4.611249923706055,1,1
3.7322998046875,9.349889755249023,-0.2105399966239929,7.945000171661377,-22.7237491607666,5.179999828338623,1,1
3.79928994178772,9.311610221862791,-0.2009699940681457,8.4350004196167,-22.706249237060547,5.486249923706055,1,1
3.827999830245972,9.311610221862791,-0.2679599821567535,8.776249885559082,-22.837499618530277,5.62624979019165,1,1
3.7514398097991934,9.273329734802246,-0.3062399923801422,9.00374984741211,-22.90749931335449,5.757500171661377,1,1
3.6940197944641113,9.282899856567385,-0.3062399923801422,9.7475004196167,-22.854999542236328,5.836249828338623,1,1
3.827999830245972,9.206339836120604,-0.5550599694252014,15.592499732971191,-22.636249542236328,7.376250267028809,1,1
3.5791800022125244,9.302040100097656,-0.3253799974918365,10.28125,-22.837499618530277,6.002500057220459,1,1
3.627029895782471,9.206339836120604,-0.354090005159378,10.885000228881836,-22.854999542236328,6.168749809265137,1,1
3.607889890670776,9.244619369506836,-0.354090005159378,11.585000038146973,-22.81999969482422,6.317500114440918,1,1
3.5791800022125244,9.187199592590332,-0.3636599779129028,12.267499923706056,-22.793750762939453,6.50124979019165,1,1
3.56003999710083,9.16805934906006,-0.4210799932479858,13.011250495910645,-22.706249237060547,6.755000114440918,1,1
3.56003999710083,9.215909957885742,-0.4784999787807464,13.737500190734863,-22.5575008392334,6.912499904632568,1,1
3.617460012435913,9.206339836120604,-0.4976399838924408,14.50749969482422,-22.46999931335449,7.175000190734863,1,1
3.6940197944641113,9.215909957885742,-0.4402199983596802,15.111249923706056,-22.399999618530277,7.358749866485596,1,1
3.7514398097991934,9.206339836120604,-0.4497900009155273,15.46125030517578,-22.5049991607666,7.411250114440918,1,1
3.7801499366760254,9.26375961303711,-0.6316199898719788,14.962499618530272,-22.540000915527344,7.210000038146973,1,1
3.7131597995758057,9.35945987701416,-0.6603299975395203,14.420000076293944,-22.513750076293945,7.175000190734863,1,1
3.646169900894165,9.369029998779297,-0.7368899583816528,13.09000015258789,-22.190000534057617,7.034999847412109,1,1
3.6844499111175537,9.39773941040039,-0.7751699686050415,11.270000457763672,-22.02375030517578,6.676249980926514,1,1
3.7227299213409424,9.33074951171875,-0.7368899583816528,10.289999961853027,-22.006250381469727,6.466249942779541,1,1
3.7418699264526367,9.26375961303711,-0.7943099737167358,9.362500190734863,-21.918750762939453,6.116250038146973,1,1
3.818429946899414,9.29246997833252,-0.7847399711608887,8.426250457763672,-21.86625099182129,5.827499866485596,1,1
3.8567099571228023,9.196769714355469,-0.7943099737167358,7.743750095367432,-21.787500381469727,5.451250076293945,1,1
3.93326997756958,9.139349937438965,-0.7751699686050415,7.4375,-21.9012508392334,5.066249847412109,1,1
3.990689992904663,9.148920059204102,-0.7847399711608887,7.577499866485596,-21.936250686645508,4.707499980926514,1,1
3.961979866027832,9.09149932861328,-0.7560299634933472,9.449999809265137,-22.34749984741211,4.191249847412109,1,1
3.961979866027832,9.062789916992188,-0.7943099737167358,11.164999961853027,-22.93375015258789,3.8762500286102295,1,1
3.875849962234497,9.062789916992188,-0.8230199813842773,15.78499984741211,-23.292499542236328,3.771250009536743,1,1
3.904559850692749,9.09149932861328,-0.7751699686050415,18.5674991607666,-23.64249992370605,3.762500047683716,1,1
3.9236998558044434,9.139349937438965,-0.7943099737167358,21.4637508392334,-24.018749237060547,3.867500066757202,1,1
3.93326997756958,9.177629470825195,-0.8134499788284302,24.4737491607666,-24.386249542236328,4.121250152587891,1,1
3.894989967346192,9.254189491271973,-0.8421599864959717,27.247499465942383,-24.78874969482422,4.409999847412109,1,1
3.8567099571228023,9.22548007965088,-0.8708699941635132,29.540000915527344,-25.200000762939453,4.707499980926514,1,1
3.789719820022583,9.22548007965088,-0.96656996011734,31.00124931335449,-25.497499465942383,4.934999942779541,1,1
3.761009931564331,9.26375961303711,-0.9952799677848816,31.63999938964844,-25.73374938964844,5.110000133514404,1,1
3.7131597995758057,9.311610221862791,-1.0239899158477783,31.51749992370605,-25.80375099182129,5.206250190734863,1,1
3.761009931564331,9.273329734802246,-1.1005499362945557,30.747499465942383,-25.943750381469727,5.276249885559082,1,1
3.7227299213409424,9.302040100097656,-1.157969951629639,29.3125,-25.908750534057617,5.293749809265137,1,1
3.808859825134277,9.244619369506836,-1.157969951629639,27.571250915527344,-25.856250762939453,5.232500076293945,1,1
3.79928994178772,9.187199592590332,-1.1675399541854858,25.488750457763672,-25.7862491607666,5.171249866485596,1,1
3.789719820022583,9.196769714355469,-1.2440999746322632,23.26625061035156,-25.768749237060547,5.144999980926514,1,1
3.837569952011109,9.139349937438965,-1.2632399797439575,21.227500915527344,-25.76000022888184,5.022500038146973,1,1
3.837569952011109,9.101069450378418,-1.2632399797439575,19.477500915527344,-25.8125,4.777500152587891,1,1
3.847139835357666,9.110639572143556,-1.291949987411499,18.138750076293945,-25.926250457763672,4.576250076293945,1,1
3.93326997756958,9.177629470825195,-1.3110899925231934,17.412500381469727,-26.03125,4.59375,1,1
3.990689992904663,9.129779815673828,-1.282379984855652,17.360000610351562,-26.311250686645508,4.681250095367432,1,1
4.038539886474609,9.072360038757324,-1.3015199899673462,18.243749618530277,-26.94124984741211,4.803750038146973,1,1
4.115099906921387,9.101069450378418,-1.397220015525818,19.363750457763672,-27.55375099182129,5.013750076293945,1,1
3.9715499877929688,9.139349937438965,-1.3398000001907349,19.92374992370605,-27.825000762939453,5.101250171661377,1,1
3.9141299724578857,9.158490180969238,-1.406790018081665,20.763750076293945,-28.280000686645508,5.433750152587891,1,1
3.904559850692749,9.09149932861328,-1.4642099142074585,20.886249542236328,-28.47249984741211,5.547500133514404,1,1
3.894989967346192,9.072360038757324,-1.531199932098389,20.790000915527344,-28.50749969482422,5.853750228881836,1,1
3.885419845581055,9.09149932861328,-1.5790499448776243,19.4424991607666,-28.21000099182129,6.116250038146973,1,1
3.961979866027832,9.062789916992188,-1.665179967880249,18.637500762939453,-28.052499771118164,6.264999866485596,1,1
3.9236998558044434,9.072360038757324,-1.7034599781036377,18.40999984741211,-28.0,6.28249979019165,1,1
3.8567099571228023,9.05321979522705,-1.8757199048995967,27.649999618530277,-30.13500022888184,7.551249980926514,1,1
3.875849962234497,8.928810119628906,-2.2776598930358887,19.145000457763672,-31.5262508392334,7.306250095367432,1,1
3.9141299724578857,8.670419692993164,-2.9475598335266118,43.24250030517578,-39.803749084472656,4.838749885559082,1,1
3.837569952011109,8.641709327697754,-2.899709939956665,38.8849983215332,-38.692501068115234,4.760000228881836,1,1
3.9524099826812735,8.593859672546387,-2.842289924621582,36.79375076293945,-38.071250915527344,4.961249828338623,1,1
3.93326997756958,8.660849571228027,-2.8327200412750244,33.223751068115234,-37.126251220703125,5.057499885559082,1,1
3.9141299724578857,8.603429794311523,-2.842289924621582,30.33625030517578,-36.20750045776367,5.582499980926514,1,1
3.9141299724578857,8.65127944946289,-2.8518600463867188,29.3125,-35.7087516784668,5.862500190734863,1,1
3.9811198711395264,8.641709327697754,-2.8518600463867188,28.638750076293945,-35.13999938964844,6.238749980926514,1,1
4.019400119781494,8.603429794311523,-2.81358003616333,28.122499465942383,-34.588748931884766,6.5625,1,1
4.076819896697998,8.565150260925293,-2.842289924621582,28.18375015258789,-34.22999954223633,6.833750247955322,1,1
4.028969764709473,8.603429794311523,-2.794440031051636,28.778749465942383,-33.92375183105469,6.991250038146973,1,1
3.9715499877929688,8.976659774780273,-1.6747499704360962,18.29624938964844,-28.122499465942383,6.326250076293945,1,1
4.009829998016357,8.536439895629883,-2.7753000259399414,29.91625022888184,-33.54750061035156,7.139999866485596,1,1
3.837569952011109,9.072360038757324,-1.9522799253463743,28.06999969482422,-30.2137508392334,7.778749942779541,1,1
3.837569952011109,9.08193016052246,-2.0192699432373047,27.790000915527344,-30.42374992370605,7.875,1,1
3.8567099571228023,9.062789916992188,-2.0479798316955566,26.87125015258789,-30.537500381469727,7.997499942779541,1,1
